trials.thisRepN,trials.thisTrialN,trials.thisN,trials.thisIndex,thisRow.t,notes,trial.started,num_distr,Fixation.started,target.started,mouse.started,trial.stopped,mouse.x,mouse.y,mouse.leftButton,mouse.midButton,mouse.rightButton,mouse.time,mouse.clicked_name,participant,session,date,expName,psychopyVersion,frameRate,expStart,
0,0,0,0,0.126131200013333,,0.06159430000116117,5,0.126131200013333,0.126131200013333,0.10426819999702275,2.6789106000069296,[0.31833333333333336],[0.33166666666666667],[1],[0],[0],[2.575172199998633],['target'],1,001,2024-10-10_11h46.34.775,Visual search task,2024.1.5,None,2024-10-10 11h47.23.417261 +0530,
1,0,1,0,2.7254901000123937,,2.7040751000022283,5,2.7254901000123937,2.7254901000123937,0.010380599997006357,4.364246400000411,[-0.48833333333333334],[0.15],[1],[0],[0],[1.6499525999970501],['target'],1,001,2024-10-10_11h46.34.775,Visual search task,2024.1.5,None,2024-10-10 11h47.23.417261 +0530,
2,0,2,0,4.39357570001448,,4.366323800000828,5,4.39357570001448,4.39357570001448,0.012286000011954457,5.979714000000968,[0.0033333333333333335],[-0.37333333333333335],[1],[0],[0],[1.6011542000051122],['target'],1,001,2024-10-10_11h46.34.775,Visual search task,2024.1.5,None,2024-10-10 11h47.23.417261 +0530,
3,0,3,0,6.024858300006599,,5.981756800014409,10,6.024858300006599,6.024858300006599,0.021684699997422285,7.679389300014009,[0.4216666666666667],[0.17166666666666666],[1],[0],[0],[1.6760560999973677],['target'],1,001,2024-10-10_11h46.34.775,Visual search task,2024.1.5,None,2024-10-10 11h47.23.417261 +0530,
4,0,4,0,7.726375400001416,,7.681521500009694,10,7.726375400001416,7.726375400001416,0.022429799995734356,10.579287400003523,[-0.43833333333333335],[0.19166666666666668],[1],[0],[0],[2.875415200003772],['target'],1,001,2024-10-10_11h46.34.775,Visual search task,2024.1.5,None,2024-10-10 11h47.23.417261 +0530,
5,0,5,0,10.60853210001369,,10.581384400007664,5,10.60853210001369,10.60853210001369,0.012471599999116734,12.362644600012572,[0.36666666666666664],[-0.2633333333333333],[1],[0],[0],[1.7688456000032602],['target'],1,001,2024-10-10_11h46.34.775,Visual search task,2024.1.5,None,2024-10-10 11h47.23.417261 +0530,
6,0,6,0,12.408256300011999,,12.364787700003944,10,12.408256300011999,12.408256300011999,0.02050309999322053,14.029194000002462,[0.035],[0.22833333333333333],[1],[0],[0],[1.6439211000106297],['target'],1,001,2024-10-10_11h46.34.775,Visual search task,2024.1.5,None,2024-10-10 11h47.23.417261 +0530,
7,0,7,0,14.057265800001915,,14.031275100001949,5,14.057265800001915,14.057265800001915,0.011797800005297177,15.377892100004829,[-0.06833333333333333],[0.165],[1],[0],[0],[1.334854799992172],['target'],1,001,2024-10-10_11h46.34.775,Visual search task,2024.1.5,None,2024-10-10 11h47.23.417261 +0530,
8,0,8,0,15.424811300006695,,15.380000500008464,10,15.424811300006695,15.424811300006695,0.02359660000365693,17.911387100000866,[-0.07666666666666666],[-0.245],[1],[0],[0],[2.507849499990698],['target'],1,001,2024-10-10_11h46.34.775,Visual search task,2024.1.5,None,2024-10-10 11h47.23.417261 +0530,
9,0,9,0,17.939800800013472,,17.91353700000036,5,17.939800800013472,17.939800800013472,0.011975000001257285,19.361052800013567,[0.39666666666666667],[-0.28833333333333333],[1],[0],[0],[1.435704599993187],['target'],1,001,2024-10-10_11h46.34.775,Visual search task,2024.1.5,None,2024-10-10 11h47.23.417261 +0530,
10,0,10,0,19.407536400001845,,19.36324630001036,10,19.407536400001845,19.407536400001845,0.021334799996111542,21.077991200014367,[-0.4166666666666667],[0.0],[1],[0],[0],[1.69361430000572],['target'],1,001,2024-10-10_11h46.34.775,Visual search task,2024.1.5,None,2024-10-10 11h47.23.417261 +0530,
11,0,11,0,21.12418530001014,,21.08008690000861,10,21.12418530001014,21.12418530001014,0.020110199999180622,23.19517440001073,[0.2],[0.3516666666666667],[1],[0],[0],[2.095113000003039],['target'],1,001,2024-10-10_11h46.34.775,Visual search task,2024.1.5,None,2024-10-10 11h47.23.417261 +0530,
12,0,12,0,23.24009860001388,,23.197245800009114,10,23.24009860001388,23.24009860001388,0.02099150000140071,25.977611700000125,[-0.14333333333333334],[-0.35],[1],[0],[0],[2.759453000006033],['target'],1,001,2024-10-10_11h46.34.775,Visual search task,2024.1.5,None,2024-10-10 11h47.23.417261 +0530,
13,0,13,0,26.022171800010256,,25.97970310000528,10,26.022171800010256,26.022171800010256,0.02136899999459274,31.42609100000118,[0.18833333333333332],[0.495],[1],[0],[0],[5.425068599986844],['target'],1,001,2024-10-10_11h46.34.775,Visual search task,2024.1.5,None,2024-10-10 11h47.23.417261 +0530,
14,0,14,0,31.472199499999988,,31.428189000012935,10,31.472199499999988,31.472199499999988,0.021181699994485825,33.75907640000514,[-0.08166666666666667],[-0.25333333333333335],[1],[0],[0],[2.3098377999995137],['target'],1,001,2024-10-10_11h46.34.775,Visual search task,2024.1.5,None,2024-10-10 11h47.23.417261 +0530,
15,0,15,0,33.78778690000763,,33.76122880000912,5,33.78778690000763,33.78778690000763,0.011979300004895777,35.77401500000269,[-0.36333333333333334],[0.37666666666666665],[1],[0],[0],[2.000951399997575],['target'],1,001,2024-10-10_11h46.34.775,Visual search task,2024.1.5,None,2024-10-10 11h47.23.417261 +0530,
16,0,16,0,35.82078890000412,,35.77608060000057,10,35.82078890000412,35.82078890000412,0.020298399991588667,37.124524400001974,[0.36666666666666664],[-0.30833333333333335],[1],[0],[0],[1.3282459999900311],['target'],1,001,2024-10-10_11h46.34.775,Visual search task,2024.1.5,None,2024-10-10 11h47.23.417261 +0530,
17,0,17,0,37.170699000009336,,37.12659060000442,10,37.170699000009336,37.170699000009336,0.019608500006143004,39.32603320000635,[0.015],[0.09333333333333334],[1],[0],[0],[2.1799649000022328],['target'],1,001,2024-10-10_11h46.34.775,Visual search task,2024.1.5,None,2024-10-10 11h47.23.417261 +0530,
18,0,18,0,39.354480300011346,,39.3281003000011,5,39.354480300011346,39.354480300011346,0.011583200001041405,41.058428000003914,[-0.44],[0.385],[1],[0],[0],[1.71886569999333],['target'],1,001,2024-10-10_11h46.34.775,Visual search task,2024.1.5,None,2024-10-10 11h47.23.417261 +0530,
19,0,19,0,41.088437100013834,,41.06047030001355,5,41.088437100013834,41.088437100013834,0.011355599999660626,42.87540080001054,[0.215],[-0.11833333333333333],[1],[0],[0],[1.8036544999922626],['target'],1,001,2024-10-10_11h46.34.775,Visual search task,2024.1.5,None,2024-10-10 11h47.23.417261 +0530,
20,0,20,0,42.92123610000999,,42.877468500009854,10,42.92123610000999,42.92123610000999,0.020620799987227656,46.458023400002276,[-0.37333333333333335],[-0.37333333333333335],[1],[0],[0],[3.559994299997925],['target'],1,001,2024-10-10_11h46.34.775,Visual search task,2024.1.5,None,2024-10-10 11h47.23.417261 +0530,
21,0,21,0,46.50292260000424,,46.460132000007434,10,46.50292260000424,46.50292260000424,0.021104899991769344,48.391355500003556,[0.41],[0.075],[1],[0],[0],[1.9101908000011463],['target'],1,001,2024-10-10_11h46.34.775,Visual search task,2024.1.5,None,2024-10-10 11h47.23.417261 +0530,
22,0,22,0,48.42052200000035,,48.39343860000372,5,48.42052200000035,48.42052200000035,0.011268900008872151,52.95803010000964,[-0.055],[0.49833333333333335],[1],[0],[0],[4.553390400003991],['target'],1,001,2024-10-10_11h46.34.775,Visual search task,2024.1.5,None,2024-10-10 11h47.23.417261 +0530,
23,0,23,0,53.00311220000731,,52.96009750000667,10,53.00311220000731,53.00311220000731,0.020428999996511266,55.440039700013585,[-0.375],[-0.175],[1],[0],[0],[2.4596393999963766],['target'],1,001,2024-10-10_11h46.34.775,Visual search task,2024.1.5,None,2024-10-10 11h47.23.417261 +0530,
24,0,24,0,55.46854240000539,,55.44211350000114,5,55.46854240000539,55.46854240000539,0.011107400001492351,57.139601700007915,[-0.155],[0.405],[1],[0],[0],[1.6865030000044499],['target'],1,001,2024-10-10_11h46.34.775,Visual search task,2024.1.5,None,2024-10-10 11h47.23.417261 +0530,
25,0,25,0,57.18616150000889,,57.141680900007486,10,57.18616150000889,57.18616150000889,0.022070399994845502,58.65567570000712,[0.39666666666666667],[-0.17],[1],[0],[0],[1.4919839999929536],['target'],1,001,2024-10-10_11h46.34.775,Visual search task,2024.1.5,None,2024-10-10 11h47.23.417261 +0530,
26,0,26,0,58.70240360000753,,58.65776190000179,10,58.70240360000753,58.70240360000753,0.022425000002840534,60.77213140000822,[0.40166666666666667],[-0.045],[1],[0],[0],[2.0920836000004783],['target'],1,001,2024-10-10_11h46.34.775,Visual search task,2024.1.5,None,2024-10-10 11h47.23.417261 +0530,
27,0,27,0,60.8005070000072,,60.77439950000553,5,60.8005070000072,60.8005070000072,0.011609299996052869,62.55433890000859,[-0.44666666666666666],[0.21666666666666667],[1],[0],[0],[1.7684030999953393],['target'],1,001,2024-10-10_11h46.34.775,Visual search task,2024.1.5,None,2024-10-10 11h47.23.417261 +0530,
28,0,28,0,62.60068950000277,,62.55640430000494,10,62.60068950000277,62.60068950000277,0.01975479999964591,64.30420310000773,[-0.11],[0.43833333333333335],[1],[0],[0],[1.7281910000019707],['target'],1,001,2024-10-10_11h46.34.775,Visual search task,2024.1.5,None,2024-10-10 11h47.23.417261 +0530,
29,0,29,0,64.33347930001037,,64.30629080001381,5,64.33347930001037,64.33347930001037,0.010379599989391863,65.93819090000761,[0.27166666666666667],[0.4216666666666667],[1],[0],[0],[1.621632700000191],['target'],1,001,2024-10-10_11h46.34.775,Visual search task,2024.1.5,None,2024-10-10 11h47.23.417261 +0530,
30,0,30,0,65.98463500000071,,65.94030650000786,10,65.98463500000071,65.98463500000071,0.020965799994883128,69.35530030001246,[-0.22333333333333333],[0.16166666666666665],[1],[0],[0],[3.3941529000003356],['target'],1,001,2024-10-10_11h46.34.775,Visual search task,2024.1.5,None,2024-10-10 11h47.23.417261 +0530,
31,0,31,0,69.38447570000426,,69.3573727000039,5,69.38447570000426,69.38447570000426,0.01180910000402946,70.55500920000486,[-0.2783333333333333],[-0.06833333333333333],[1],[0],[0],[1.1858464999968419],['target'],1,001,2024-10-10_11h46.34.775,Visual search task,2024.1.5,None,2024-10-10 11h47.23.417261 +0530,
32,0,32,0,70.60104390000924,,70.55705300001136,10,70.60104390000924,70.60104390000924,0.02102940001350362,72.1722015000123,[-0.44333333333333336],[-0.175],[1],[0],[0],[1.5941817999992054],['target'],1,001,2024-10-10_11h46.34.775,Visual search task,2024.1.5,None,2024-10-10 11h47.23.417261 +0530,
33,0,33,0,72.19973990001017,,72.17433340000571,5,72.19973990001017,72.19973990001017,0.011452499995357357,73.9708973000088,[0.2733333333333333],[0.34],[1],[0],[0],[1.7852320999954827],['target'],1,001,2024-10-10_11h46.34.775,Visual search task,2024.1.5,None,2024-10-10 11h47.23.417261 +0530,
34,0,34,0,74.000581100001,,73.97295210001175,5,74.000581100001,74.000581100001,0.013001300001633354,75.52083870000206,[0.36],[-0.3616666666666667],[1],[0],[0],[1.5349428999907104],['target'],1,001,2024-10-10_11h46.34.775,Visual search task,2024.1.5,None,2024-10-10 11h47.23.417261 +0530,
35,0,35,0,75.56658480000624,,75.52289140000357,10,75.56658480000624,75.56658480000624,0.021252399994409643,78.77082280001196,[0.1],[0.49833333333333335],[1],[0],[0],[3.2267357999953674],['target'],1,001,2024-10-10_11h46.34.775,Visual search task,2024.1.5,None,2024-10-10 11h47.23.417261 +0530,
36,0,36,0,78.80021740001393,,78.77288600000611,5,78.80021740001393,78.80021740001393,0.011718900001142174,80.3207540000003,[0.4716666666666667],[-0.405],[1],[0],[0],[1.5362117999902694],['target'],1,001,2024-10-10_11h46.34.775,Visual search task,2024.1.5,None,2024-10-10 11h47.23.417261 +0530,
37,0,37,0,80.36589110000932,,80.3228453000047,10,80.36589110000932,80.36589110000932,0.022258400000282563,81.98713380000845,[0.08],[0.075],[1],[0],[0],[1.6420289000088815],['target'],1,001,2024-10-10_11h46.34.775,Visual search task,2024.1.5,None,2024-10-10 11h47.23.417261 +0530,
38,0,38,0,82.03120200001285,,81.98922590000439,10,82.03120200001285,82.03120200001285,0.02085149999766145,83.60236020000593,[0.42833333333333334],[-0.35],[1],[0],[0],[1.5922933999972884],['target'],1,001,2024-10-10_11h46.34.775,Visual search task,2024.1.5,None,2024-10-10 11h47.23.417261 +0530,
39,0,39,0,83.6309692000068,,83.60455030000594,5,83.6309692000068,83.6309692000068,0.010325600000214763,85.26866070000688,[-0.36],[0.44166666666666665],[1],[0],[0],[1.6538776000088546],['target'],1,001,2024-10-10_11h46.34.775,Visual search task,2024.1.5,None,2024-10-10 11h47.23.417261 +0530,
40,0,40,0,85.31420860000071,,85.27099780000572,10,85.31420860000071,85.31420860000071,0.019518600005540065,86.717945100012,[-0.5],[0.12],[1],[0],[0],[1.427571699998225],['target'],1,001,2024-10-10_11h46.34.775,Visual search task,2024.1.5,None,2024-10-10 11h47.23.417261 +0530,
41,0,41,0,86.74705270001141,,86.72006920000422,5,86.74705270001141,86.74705270001141,0.010649600008036941,88.08516310001141,[0.35333333333333333],[0.24166666666666667],[1],[0],[0],[1.354527399991639],['target'],1,001,2024-10-10_11h46.34.775,Visual search task,2024.1.5,None,2024-10-10 11h47.23.417261 +0530,
42,0,42,0,88.13081450000755,,88.08723220000684,10,88.13081450000755,88.13081450000755,0.019830400007776916,89.58378520001133,[0.37833333333333335],[-0.15666666666666668],[1],[0],[0],[1.4767654000024777],['target'],1,001,2024-10-10_11h46.34.775,Visual search task,2024.1.5,None,2024-10-10 11h47.23.417261 +0530,
43,0,43,0,89.61370990000432,,89.58588080000482,5,89.61370990000432,89.61370990000432,0.010099699997226708,91.26773860001413,[-0.3433333333333333],[0.16666666666666666],[1],[0],[0],[1.6718350000010105],['target'],1,001,2024-10-10_11h46.34.775,Visual search task,2024.1.5,None,2024-10-10 11h47.23.417261 +0530,
44,0,44,0,91.29724870000791,,91.26978530001361,5,91.29724870000791,91.29724870000791,0.00979630000074394,92.16939710000588,[-0.3416666666666667],[0.16666666666666666],[1],[0],[0],[0.8898447999963537],['target'],1,001,2024-10-10_11h46.34.775,Visual search task,2024.1.5,None,2024-10-10 11h47.23.417261 +0530,
45,0,45,0,92.19714160000149,,92.1714648000052,5,92.19714160000149,92.19714160000149,0.011375699992640875,93.85152650000236,[0.43166666666666664],[-0.295],[1],[0],[0],[1.6687386999983573],['target'],1,001,2024-10-10_11h46.34.775,Visual search task,2024.1.5,None,2024-10-10 11h47.23.417261 +0530,
46,0,46,0,93.88091640001221,,93.85357670001395,5,93.88091640001221,93.88091640001221,0.012054999999236315,95.30258170000161,[0.20666666666666667],[0.215],[1],[0],[0],[1.437050199994701],['target'],1,001,2024-10-10_11h46.34.775,Visual search task,2024.1.5,None,2024-10-10 11h47.23.417261 +0530,
47,0,47,0,95.34785110001394,,95.30476520000957,10,95.34785110001394,95.34785110001394,0.020874599998933263,98.16765780000424,[0.30833333333333335],[-0.43],[1],[0],[0],[2.8421750999987125],['target'],1,001,2024-10-10_11h46.34.775,Visual search task,2024.1.5,None,2024-10-10 11h47.23.417261 +0530,
48,0,48,0,98.19781340000918,,98.16986400001042,5,98.19781340000918,98.19781340000918,0.012765000006766059,99.70147580000048,[-0.125],[0.23666666666666666],[1],[0],[0],[1.5189345000108005],['target'],1,001,2024-10-10_11h46.34.775,Visual search task,2024.1.5,None,2024-10-10 11h47.23.417261 +0530,
49,0,49,0,99.74743880001188,,99.70358460000716,10,99.74743880001188,99.74743880001188,0.020344699994893745,101.91809480001393,[-0.4666666666666667],[-0.42],[1],[0],[0],[2.19427779999387],['target'],1,001,2024-10-10_11h46.34.775,Visual search task,2024.1.5,None,2024-10-10 11h47.23.417261 +0530,
50,0,50,0,101.96253640000941,,101.92017890000716,10,101.96253640000941,101.96253640000941,0.02129340000101365,105.06772760000604,[0.06333333333333334],[0.295],[1],[0],[0],[3.126325600009295],['target'],1,001,2024-10-10_11h46.34.775,Visual search task,2024.1.5,None,2024-10-10 11h47.23.417261 +0530,
51,0,51,0,105.0956154000014,,105.06980560001102,5,105.0956154000014,105.0956154000014,0.011565700013306923,107.0506660000101,[-0.07666666666666666],[-0.38],[1],[0],[0],[1.9693466000026092],['target'],1,001,2024-10-10_11h46.34.775,Visual search task,2024.1.5,None,2024-10-10 11h47.23.417261 +0530,
52,0,52,0,107.0785360000009,,107.05271080000966,5,107.0785360000009,107.0785360000009,0.011971899992204271,108.6168514000019,[0.2733333333333333],[-0.15333333333333332],[1],[0],[0],[1.55226140000741],['target'],1,001,2024-10-10_11h46.34.775,Visual search task,2024.1.5,None,2024-10-10 11h47.23.417261 +0530,
53,0,53,0,108.66318950000277,,108.61896270001307,10,108.66318950000277,108.66318950000277,0.020164400004432537,110.25045130000217,[0.07166666666666667],[0.27],[1],[0],[0],[1.6114010000019334],['target'],1,001,2024-10-10_11h46.34.775,Visual search task,2024.1.5,None,2024-10-10 11h47.23.417261 +0530,
54,0,54,0,110.29593490000116,,110.25253040000098,10,110.29593490000116,110.29593490000116,0.020579499992891215,111.61700020001444,[-0.06166666666666667],[0.375],[1],[0],[0],[1.3439106000005268],['target'],1,001,2024-10-10_11h46.34.775,Visual search task,2024.1.5,None,2024-10-10 11h47.23.417261 +0530,
55,0,55,0,111.64574300000095,,111.61912540000048,5,111.64574300000095,111.64574300000095,0.012542900003609248,112.7999523000035,[-0.03333333333333333],[0.15833333333333333],[1],[0],[0],[1.1683426000090549],['target'],1,001,2024-10-10_11h46.34.775,Visual search task,2024.1.5,None,2024-10-10 11h47.23.417261 +0530,
56,0,56,0,112.82851970000775,,112.80200210001203,5,112.82851970000775,112.82851970000775,0.01102379999065306,115.14766860000964,[-0.04],[-0.058333333333333334],[1],[0],[0],[2.3347795000008773],['target'],1,001,2024-10-10_11h46.34.775,Visual search task,2024.1.5,None,2024-10-10 11h47.23.417261 +0530,
57,0,57,0,115.1772256000113,,115.1497803000093,5,115.1772256000113,115.1772256000113,0.010140500002307817,116.53031020000344,[-0.005],[0.27166666666666667],[1],[0],[0],[1.3704280000092695],['target'],1,001,2024-10-10_11h46.34.775,Visual search task,2024.1.5,None,2024-10-10 11h47.23.417261 +0530,
58,0,58,0,116.57720240000344,,116.53238400000555,10,116.57720240000344,116.57720240000344,0.019230999998399056,118.21416030000546,[-0.3516666666666667],[0.095],[1],[0],[0],[1.662622999996529],['target'],1,001,2024-10-10_11h46.34.775,Visual search task,2024.1.5,None,2024-10-10 11h47.23.417261 +0530,
59,0,59,0,118.24384020001162,,118.21622450000723,5,118.24384020001162,118.24384020001162,0.009844900007010438,119.43246140000701,[0.31333333333333335],[-0.016666666666666666],[1],[0],[0],[1.2064503000001423],['target'],1,001,2024-10-10_11h46.34.775,Visual search task,2024.1.5,None,2024-10-10 11h47.23.417261 +0530,
60,0,60,0,119.47766810000758,,119.43452920000709,10,119.47766810000758,119.47766810000758,0.020646000004489906,121.01403050000954,[0.29],[0.23],[1],[0],[0],[1.558931699997629],['target'],1,001,2024-10-10_11h46.34.775,Visual search task,2024.1.5,None,2024-10-10 11h47.23.417261 +0530,
61,0,61,0,121.04325390000304,,121.01612170001317,5,121.04325390000304,121.04325390000304,0.009947500002454035,122.39879780000774,[0.395],[0.13666666666666666],[1],[0],[0],[1.3728045000025304],['target'],1,001,2024-10-10_11h46.34.775,Visual search task,2024.1.5,None,2024-10-10 11h47.23.417261 +0530,
62,0,62,0,122.42655630000809,,122.40086420001171,5,122.42655630000809,122.42655630000809,0.011232799995923415,124.14587120000215,[-0.2683333333333333],[-0.025],[1],[0],[0],[1.733855999991647],['target'],1,001,2024-10-10_11h46.34.775,Visual search task,2024.1.5,None,2024-10-10 11h47.23.417261 +0530,
63,0,63,0,124.17622490000213,,124.1479388000007,5,124.17622490000213,124.17622490000213,0.010405000008177012,125.7802922000119,[-0.23],[-0.2916666666666667],[1],[0],[0],[1.6219599999894854],['target'],1,001,2024-10-10_11h46.34.775,Visual search task,2024.1.5,None,2024-10-10 11h47.23.417261 +0530,
64,0,64,0,125.80949560001318,,125.78238230000716,5,125.80949560001318,125.80949560001318,0.009779900006833486,127.18044670000381,[-0.37],[0.056666666666666664],[1],[0],[0],[1.3882916000002297],['target'],1,001,2024-10-10_11h46.34.775,Visual search task,2024.1.5,None,2024-10-10 11h47.23.417261 +0530,
65,0,65,0,127.22544730000664,,127.18249810000998,10,127.22544730000664,127.22544730000664,0.019476799992844462,129.2477312000119,[-0.07166666666666667],[-0.03],[1],[0],[0],[2.045818099999451],['target'],1,001,2024-10-10_11h46.34.775,Visual search task,2024.1.5,None,2024-10-10 11h47.23.417261 +0530,
66,0,66,0,129.29257610000786,,129.24981960000878,10,129.29257610000786,129.29257610000786,0.020467800000915304,131.51246590001392,[0.43833333333333335],[0.225],[1],[0],[0],[2.242233799988753],['target'],1,001,2024-10-10_11h46.34.775,Visual search task,2024.1.5,None,2024-10-10 11h47.23.417261 +0530,
67,0,67,0,131.5586168000009,,131.51453280000715,10,131.5586168000009,131.5586168000009,0.01956879999488592,133.51329770000302,[0.12],[-0.31833333333333336],[1],[0],[0],[1.9792401000013342],['target'],1,001,2024-10-10_11h46.34.775,Visual search task,2024.1.5,None,2024-10-10 11h47.23.417261 +0530,
68,0,68,0,133.55869520000124,,133.51535380000132,10,133.55869520000124,133.55869520000124,0.02179049998812843,134.86299190000864,[0.05333333333333334],[-0.32166666666666666],[1],[0],[0],[1.325894400011748],['target'],1,001,2024-10-10_11h46.34.775,Visual search task,2024.1.5,None,2024-10-10 11h47.23.417261 +0530,
69,0,69,0,134.907810100005,,134.86521280001034,10,134.907810100005,134.907810100005,0.020832599999266677,137.01276810000127,[0.24166666666666667],[0.12],[1],[0],[0],[2.1268523999897297],['target'],1,001,2024-10-10_11h46.34.775,Visual search task,2024.1.5,None,2024-10-10 11h47.23.417261 +0530,
70,0,70,0,137.05915250000544,,137.01487800000177,10,137.05915250000544,137.05915250000544,0.022147399999084882,139.7954679000104,[-0.26666666666666666],[-0.30333333333333334],[1],[0],[0],[2.7585664999933215],['target'],1,001,2024-10-10_11h46.34.775,Visual search task,2024.1.5,None,2024-10-10 11h47.23.417261 +0530,
71,0,71,0,139.82546030000958,,139.79762190001202,5,139.82546030000958,139.82546030000958,0.011176400003023446,141.2301618000056,[-0.36666666666666664],[-0.275],[1],[0],[0],[1.4214286999922479],['target'],1,001,2024-10-10_11h46.34.775,Visual search task,2024.1.5,None,2024-10-10 11h47.23.417261 +0530,
72,0,72,0,141.27537230000598,,141.23223080000025,10,141.27537230000598,141.27537230000598,0.02035720000276342,143.07919450000918,[0.3616666666666667],[-0.405],[1],[0],[0],[1.8266629999998258],['target'],1,001,2024-10-10_11h46.34.775,Visual search task,2024.1.5,None,2024-10-10 11h47.23.417261 +0530,
73,0,73,0,143.12407010000607,,143.08128100000613,10,143.12407010000607,143.12407010000607,0.019899899998563342,145.8292461000092,"[0.07166666666666667, 0.39]","[-0.04833333333333333, -0.043333333333333335]","[1, 1]","[0, 0]","[0, 0]","[1.644564200003515, 2.728193100003409]",['target'],1,001,2024-10-10_11h46.34.775,Visual search task,2024.1.5,None,2024-10-10 11h47.23.417261 +0530,
74,0,74,0,145.85766230001173,,145.83134840001003,5,145.85766230001173,145.85766230001173,0.011654100002488121,147.74562410000362,[-0.32],[-0.31166666666666665],[1],[0],[0],[1.9027059999934863],['target'],1,001,2024-10-10_11h46.34.775,Visual search task,2024.1.5,None,2024-10-10 11h47.23.417261 +0530,
75,0,75,0,147.77528970000276,,147.74768310000945,5,147.77528970000276,147.77528970000276,0.011900299999979325,149.26246190001257,[-0.295],[-0.31],[1],[0],[0],[1.5029044999973848],['target'],1,001,2024-10-10_11h46.34.775,Visual search task,2024.1.5,None,2024-10-10 11h47.23.417261 +0530,
76,0,76,0,149.29096470000513,,149.26452290000452,5,149.29096470000513,149.29096470000513,0.011828799993963912,152.79327080000076,[0.07666666666666666],[-0.36666666666666664],[1],[0],[0],[3.5169195999915246],['target'],1,001,2024-10-10_11h46.34.775,Visual search task,2024.1.5,None,2024-10-10 11h47.23.417261 +0530,
77,0,77,0,152.82269950000045,,152.79546450001362,5,152.82269950000045,152.82269950000045,0.010277699999278411,154.6442212000111,[0.16166666666666665],[-0.27666666666666667],[1],[0],[0],[1.838585300007253],['target'],1,001,2024-10-10_11h46.34.775,Visual search task,2024.1.5,None,2024-10-10 11h47.23.417261 +0530,
78,0,78,0,154.68928470001265,,154.64633600000525,10,154.68928470001265,154.68928470001265,0.020623099990189075,156.05990260001272,[0.20166666666666666],[0.07666666666666666],[1],[0],[0],[1.393058799993014],['target'],1,001,2024-10-10_11h46.34.775,Visual search task,2024.1.5,None,2024-10-10 11h47.23.417261 +0530,
79,0,79,0,156.10618810000597,,156.06216410000343,10,156.10618810000597,156.10618810000597,0.02318050000758376,157.47794600001362,[0.4766666666666667],[0.31666666666666665],[1],[0],[0],[1.3926565000001574],['target'],1,001,2024-10-10_11h46.34.775,Visual search task,2024.1.5,None,2024-10-10 11h47.23.417261 +0530,
80,0,80,0,157.52208690000407,,157.48013340000762,10,157.52208690000407,157.52208690000407,0.02083560000755824,159.91041960001166,[-0.3883333333333333],[0.0016666666666666668],[1],[0],[0],[2.409491300000809],['target'],1,001,2024-10-10_11h46.34.775,Visual search task,2024.1.5,None,2024-10-10 11h47.23.417261 +0530,
81,0,81,0,159.9384393000073,,159.9125606000016,5,159.9384393000073,159.9384393000073,0.010948900002404116,161.37668370000029,[0.36666666666666664],[0.15166666666666667],[1],[0],[0],[1.4532394999987446],['target'],1,001,2024-10-10_11h46.34.775,Visual search task,2024.1.5,None,2024-10-10 11h47.23.417261 +0530,
82,0,82,0,161.40567100000044,,161.37875380000332,5,161.40567100000044,161.40567100000044,0.011598299999604933,163.49295170001278,[0.04],[0.05333333333333334],[1],[0],[0],[2.1026759000087623],['target'],1,001,2024-10-10_11h46.34.775,Visual search task,2024.1.5,None,2024-10-10 11h47.23.417261 +0530,
83,0,83,0,163.5225913000031,,163.49502090000897,5,163.5225913000031,163.5225913000031,0.011595200005103834,165.60992240000633,[-0.49833333333333335],[0.315],[1],[0],[0],[2.103460600003018],['target'],1,001,2024-10-10_11h46.34.775,Visual search task,2024.1.5,None,2024-10-10 11h47.23.417261 +0530,
84,0,84,0,165.65442980000807,,165.6121007000038,10,165.65442980000807,165.65442980000807,0.020377100008772686,171.7925016000081,[-0.03666666666666667],[0.05],[1],[0],[0],[6.1601978999970015],['target'],1,001,2024-10-10_11h46.34.775,Visual search task,2024.1.5,None,2024-10-10 11h47.23.417261 +0530,
85,0,85,0,171.82141650000995,,171.79458380000142,5,171.82141650000995,171.82141650000995,0.011366699996870011,173.6407016000012,[-0.16833333333333333],[-0.4166666666666667],[1],[0],[0],[1.8348002999991877],['target'],1,001,2024-10-10_11h46.34.775,Visual search task,2024.1.5,None,2024-10-10 11h47.23.417261 +0530,
86,0,86,0,173.669922400004,,173.64277500000026,5,173.669922400004,173.669922400004,0.00996389999636449,174.5419566000055,[-0.17166666666666666],[-0.36],[1],[0],[0],[0.8893420999957016],['target'],1,001,2024-10-10_11h46.34.775,Visual search task,2024.1.5,None,2024-10-10 11h47.23.417261 +0530,
87,0,87,0,174.57136040000478,,174.54412940000475,5,174.57136040000478,174.57136040000478,0.012425100008840673,176.27435000000696,[0.11833333333333333],[0.38333333333333336],[1],[0],[0],[1.7179349000070943],['target'],1,001,2024-10-10_11h46.34.775,Visual search task,2024.1.5,None,2024-10-10 11h47.23.417261 +0530,
88,0,88,0,176.30247480000253,,176.27641160000348,5,176.30247480000253,176.30247480000253,0.011603199993260205,177.90766260000237,[-0.3],[0.075],[1],[0],[0],[1.6197679000033531],['target'],1,001,2024-10-10_11h46.34.775,Visual search task,2024.1.5,None,2024-10-10 11h47.23.417261 +0530,
89,0,89,0,177.95306400000118,,177.90974570000253,10,177.95306400000118,177.95306400000118,0.02153810000163503,179.52266350001446,[-0.22833333333333333],[-0.2683333333333333],[1],[0],[0],[1.5914755999983754],['target'],1,001,2024-10-10_11h46.34.775,Visual search task,2024.1.5,None,2024-10-10 11h47.23.417261 +0530,
90,0,90,0,179.552342400013,,179.52485580000211,5,179.552342400013,179.552342400013,0.010576600005151704,183.07421070001146,[0.018333333333333333],[-0.013333333333333334],[1],[0],[0],[3.538717200004612],['target'],1,001,2024-10-10_11h46.34.775,Visual search task,2024.1.5,None,2024-10-10 11h47.23.417261 +0530,
91,0,91,0,183.1033763000014,,183.07643530001224,5,183.1033763000014,183.1033763000014,0.011869699999806471,184.57405490000383,[-0.31833333333333336],[0.15333333333333332],[1],[0],[0],[1.4858615999983158],['target'],1,001,2024-10-10_11h46.34.775,Visual search task,2024.1.5,None,2024-10-10 11h47.23.417261 +0530,
92,0,92,0,184.61945360001118,,184.57611230001203,10,184.61945360001118,184.61945360001118,0.020739499988849275,187.5577261000144,[-0.4483333333333333],[-0.43333333333333335],[1],[0],[0],[2.9609361000038916],['target'],1,001,2024-10-10_11h46.34.775,Visual search task,2024.1.5,None,2024-10-10 11h47.23.417261 +0530,
93,0,93,0,187.58565870000166,,187.55992340001103,5,187.58565870000166,187.58565870000166,0.01148770000145305,188.9066746000026,[-0.34],[-0.32666666666666666],[1],[0],[0],[1.3354010000039125],['target'],1,001,2024-10-10_11h46.34.775,Visual search task,2024.1.5,None,2024-10-10 11h47.23.417261 +0530,
94,0,94,0,188.9355249000073,,188.9087298000086,5,188.9355249000073,188.9355249000073,0.012198600001283921,190.90612970000075,[0.33666666666666667],[0.4116666666666667],[1],[0],[0],[1.985308499992243],['target'],1,001,2024-10-10_11h46.34.775,Visual search task,2024.1.5,None,2024-10-10 11h47.23.417261 +0530,
95,0,95,0,190.93518510001013,,190.9082206000021,5,190.93518510001013,190.93518510001013,0.011215899998205714,192.62247100000968,[-0.36],[0.185],[1],[0],[0],[1.7031947999930708],['target'],1,001,2024-10-10_11h46.34.775,Visual search task,2024.1.5,None,2024-10-10 11h47.23.417261 +0530,
96,0,96,0,192.65198480000254,,192.62455140000384,5,192.65198480000254,192.65198480000254,0.011112299995147623,194.4229161000112,[-0.23833333333333334],[-0.15166666666666667],[1],[0],[0],[1.7873114999965765],['target'],1,001,2024-10-10_11h46.34.775,Visual search task,2024.1.5,None,2024-10-10 11h47.23.417261 +0530,
97,0,97,0,194.45088490001217,,194.42500460000883,5,194.45088490001217,194.45088490001217,0.012156400000094436,196.18746400000236,[0.18333333333333332],[0.22666666666666666],[1],[0],[0],[1.7504388999950606],['target'],1,001,2024-10-10_11h46.34.775,Visual search task,2024.1.5,None,2024-10-10 11h47.23.417261 +0530,
98,0,98,0,196.21700450000935,,196.1895322000055,5,196.21700450000935,196.21700450000935,0.010408799993456341,201.25485290000506,"[0.035, 0.3616666666666667]","[-0.028333333333333332, 0.49166666666666664]","[1, 1]","[0, 0]","[0, 0]","[3.504832399994484, 5.05501889999141]",['target'],1,001,2024-10-10_11h46.34.775,Visual search task,2024.1.5,None,2024-10-10 11h47.23.417261 +0530,
99,0,99,0,201.30004380000173,,201.2569455000048,10,201.30004380000173,201.30004380000173,0.02009669999824837,202.90468910000345,[-0.365],[0.3383333333333333],[1],[0],[0],[1.6277412000054028],['target'],1,001,2024-10-10_11h46.34.775,Visual search task,2024.1.5,None,2024-10-10 11h47.23.417261 +0530,
100,0,100,0,202.94991440000013,,202.90676600000006,10,202.94991440000013,202.94991440000013,0.02037739999650512,204.48766030000115,[0.22],[0.35833333333333334],[1],[0],[0],[1.5605628000048455],['target'],1,001,2024-10-10_11h46.34.775,Visual search task,2024.1.5,None,2024-10-10 11h47.23.417261 +0530,
101,0,101,0,204.53355590000865,,204.48975270001392,10,204.53355590000865,204.53355590000865,0.020894700006465428,207.17052860000695,[-0.24666666666666667],[0.3883333333333333],[1],[0],[0],[2.659953599999426],['target'],1,001,2024-10-10_11h46.34.775,Visual search task,2024.1.5,None,2024-10-10 11h47.23.417261 +0530,
102,0,102,0,207.21659020001243,,207.1726032000006,10,207.21659020001243,207.21659020001243,0.02119189999939408,208.63727430001018,[-0.043333333333333335],[0.12],[1],[0],[0],[1.4436036000115564],['target'],1,001,2024-10-10_11h46.34.775,Visual search task,2024.1.5,None,2024-10-10 11h47.23.417261 +0530,
103,0,103,0,208.68337090000568,,208.63939880000544,10,208.68337090000568,208.68337090000568,0.021102099999552593,209.95424210000783,[0.12166666666666667],[0.27],[1],[0],[0],[1.2936558000074],['target'],1,001,2024-10-10_11h46.34.775,Visual search task,2024.1.5,None,2024-10-10 11h47.23.417261 +0530,
104,0,104,0,209.98296590000973,,209.95638140001392,5,209.98296590000973,209.98296590000973,0.01162760000443086,211.90376780000224,[-0.3466666666666667],[0.025],[1],[0],[0],[1.935815900011221],['target'],1,001,2024-10-10_11h46.34.775,Visual search task,2024.1.5,None,2024-10-10 11h47.23.417261 +0530,
105,0,105,0,211.9493863000098,,211.90584800000943,10,211.9493863000098,211.9493863000098,0.02126039999711793,214.386820300002,[-0.24833333333333332],[-0.18166666666666667],[1],[0],[0],[2.4598160999885295],['target'],1,001,2024-10-10_11h46.34.775,Visual search task,2024.1.5,None,2024-10-10 11h47.23.417261 +0530,
106,0,106,0,214.41474470001413,,214.38892590001342,5,214.41474470001413,214.41474470001413,0.012087399998563342,215.27120100001048,[-0.255],[-0.15833333333333333],[1],[0],[0],[0.8702191999909701],['target'],1,001,2024-10-10_11h46.34.775,Visual search task,2024.1.5,None,2024-10-10 11h47.23.417261 +0530,
107,0,107,0,215.29770620001364,,215.2733217000059,5,215.29770620001364,215.29770620001364,0.011849300004541874,216.75358360000246,[0.2],[-0.255],[1],[0],[0],[1.4685148999997182],['target'],1,001,2024-10-10_11h46.34.775,Visual search task,2024.1.5,None,2024-10-10 11h47.23.417261 +0530,
108,0,108,0,216.79891110000608,,216.75567950001277,10,216.79891110000608,216.79891110000608,0.021145099992281757,218.85204410000006,[-0.06166666666666667],[-0.26166666666666666],[1],[0],[0],[2.0753654000000097],['target'],1,001,2024-10-10_11h46.34.775,Visual search task,2024.1.5,None,2024-10-10 11h47.23.417261 +0530,
109,0,109,0,218.89780650001194,,218.85432100000617,10,218.89780650001194,218.89780650001194,0.021299200001521967,220.35282220000227,[0.20333333333333334],[0.03166666666666667],[1],[0],[0],[1.477295900011086],['target'],1,001,2024-10-10_11h46.34.775,Visual search task,2024.1.5,None,2024-10-10 11h47.23.417261 +0530,
110,0,110,0,220.39819020000868,,220.35493240000505,10,220.39819020000868,220.39819020000868,0.02037640000344254,221.6336297000089,[0.05333333333333334],[0.07166666666666667],[1],[0],[0],[1.2583821000007447],['target'],1,001,2024-10-10_11h46.34.775,Visual search task,2024.1.5,None,2024-10-10 11h47.23.417261 +0530,
111,0,111,0,221.67990760000248,,221.63573020001058,10,221.67990760000248,221.67990760000248,0.01967029999650549,223.90273100000923,[-0.33666666666666667],[-0.011666666666666667],[1],[0],[0],[2.247334100000444],['target'],1,001,2024-10-10_11h46.34.775,Visual search task,2024.1.5,None,2024-10-10 11h47.23.417261 +0530,
112,0,112,0,223.9470435000112,,223.90486140000576,10,223.9470435000112,223.9470435000112,0.02118049999990035,228.63510020000103,[0.38666666666666666],[-0.12833333333333333],[1],[0],[0],[4.709174999996321],['target'],1,001,2024-10-10_11h46.34.775,Visual search task,2024.1.5,None,2024-10-10 11h47.23.417261 +0530,
113,0,113,0,228.66336090001278,,228.63718900000094,5,228.66336090001278,228.66336090001278,0.011054799993871711,230.20165430000634,[0.36833333333333335],[0.16833333333333333],[1],[0],[0],[1.5535610999941127],['target'],1,001,2024-10-10_11h46.34.775,Visual search task,2024.1.5,None,2024-10-10 11h47.23.417261 +0530,
114,0,114,0,230.31366530001105,,230.2037410000048,10,230.31366530001105,230.31366530001105,0.08617500000400469,232.91777900001034,[-0.22666666666666666],[-0.3516666666666667],[1],[0],[0],[2.627930799993919],['target'],1,001,2024-10-10_11h46.34.775,Visual search task,2024.1.5,None,2024-10-10 11h47.23.417261 +0530,
115,0,115,0,232.96253790000628,,232.91985080001177,10,232.96253790000628,232.96253790000628,0.021102200000314042,234.7175860000134,[-0.36833333333333335],[0.025],[1],[0],[0],[1.7766956000123173],['target'],1,001,2024-10-10_11h46.34.775,Visual search task,2024.1.5,None,2024-10-10 11h47.23.417261 +0530,
116,0,116,0,234.74693700000353,,234.7196554000111,5,234.74693700000353,234.74693700000353,0.011253800010308623,236.2175375000079,[0.20166666666666666],[0.27],[1],[0],[0],[1.4866511000000173],['target'],1,001,2024-10-10_11h46.34.775,Visual search task,2024.1.5,None,2024-10-10 11h47.23.417261 +0530,
117,0,117,0,236.24651390001236,,236.21959300000162,5,236.24651390001236,236.24651390001236,0.010949100003927015,237.6502518000052,[0.10833333333333334],[0.43666666666666665],[1],[0],[0],[1.4197912999952678],['target'],1,001,2024-10-10_11h46.34.775,Visual search task,2024.1.5,None,2024-10-10 11h47.23.417261 +0530,
118,0,118,0,237.67881950001174,,237.65230970000266,5,237.67881950001174,237.67881950001174,0.010721300001023337,239.2832436000026,[-0.06833333333333333],[0.095],[1],[0],[0],[1.6203255000000354],['target'],1,001,2024-10-10_11h46.34.775,Visual search task,2024.1.5,None,2024-10-10 11h47.23.417261 +0530,
119,0,119,0,239.31307210000523,,239.28534110001056,5,239.31307210000523,239.31307210000523,0.011391599997295998,241.16509360000782,[-0.13],[-0.30833333333333335],[1],[0],[0],[1.8684292000107234],['target'],1,001,2024-10-10_11h46.34.775,Visual search task,2024.1.5,None,2024-10-10 11h47.23.417261 +0530,
120,0,120,0,241.19473890001245,,241.16717700001027,10,241.19473890001245,241.19473890001245,0.019272599995019846,242.698143600006,[0.42833333333333334],[-0.24333333333333335],[1],[0],[0],[1.5117643000121461],['target'],1,001,2024-10-10_11h46.34.775,Visual search task,2024.1.5,None,2024-10-10 11h47.23.417261 +0530,
121,0,121,0,242.72776720000547,,242.70022670000617,5,242.72776720000547,242.72776720000547,0.009811399999307469,244.1314110000094,[-0.27666666666666667],[-0.2966666666666667],[1],[0],[0],[1.4215007000020705],['target'],1,001,2024-10-10_11h46.34.775,Visual search task,2024.1.5,None,2024-10-10 11h47.23.417261 +0530,
122,0,122,0,244.16054210001312,,244.13347160001285,5,244.16054210001312,244.16054210001312,0.00955699999758508,245.46606450001127,[-0.16333333333333333],[0.22666666666666666],[1],[0],[0],[1.323184199995012],['target'],1,001,2024-10-10_11h46.34.775,Visual search task,2024.1.5,None,2024-10-10 11h47.23.417261 +0530,
123,0,123,0,245.49436400001287,,245.46811670000898,5,245.49436400001287,245.49436400001287,0.011814099998446181,246.9330428000103,[0.44333333333333336],[-0.09333333333333334],[1],[0],[0],[1.4531722999963677],['target'],1,001,2024-10-10_11h46.34.775,Visual search task,2024.1.5,None,2024-10-10 11h47.23.417261 +0530,
124,0,124,0,246.9621618000092,,246.93511100001342,5,246.9621618000092,246.9621618000092,0.011523699999088421,248.04949110001326,[0.023333333333333334],[0.04833333333333333],[1],[0],[0],[1.102904999992461],['target'],1,001,2024-10-10_11h46.34.775,Visual search task,2024.1.5,None,2024-10-10 11h47.23.417261 +0530,
125,0,125,0,248.07847000000766,,248.05157090000284,5,248.07847000000766,248.07847000000766,0.011027899992768653,249.49872440000763,[-0.11],[-0.43333333333333335],[1],[0],[0],[1.4361733999976423],['target'],1,001,2024-10-10_11h46.34.775,Visual search task,2024.1.5,None,2024-10-10 11h47.23.417261 +0530,
126,0,126,0,249.54515280001215,,249.50079930000356,10,249.54515280001215,249.54515280001215,0.021343599990359508,250.6649393000116,[-0.20166666666666666],[0.043333333333333335],[1],[0],[0],[1.1429250999935903],['target'],1,001,2024-10-10_11h46.34.775,Visual search task,2024.1.5,None,2024-10-10 11h47.23.417261 +0530,
127,0,127,0,250.71150110001327,,250.66702870000154,10,250.71150110001327,250.71150110001327,0.021398400000180118,252.69882100001269,[-0.45],[-0.405],[1],[0],[0],[2.010490100001334],['target'],1,001,2024-10-10_11h46.34.775,Visual search task,2024.1.5,None,2024-10-10 11h47.23.417261 +0530,
128,0,128,0,252.74347820000548,,252.70088490001217,10,252.74347820000548,252.74347820000548,0.02092699999047909,254.01521800000046,[0.12166666666666667],[-0.1],[1],[0],[0],[1.2934621000022162],['target'],1,001,2024-10-10_11h46.34.775,Visual search task,2024.1.5,None,2024-10-10 11h47.23.417261 +0530,
129,0,129,0,254.06106610001007,,254.01744340000732,10,254.06106610001007,254.06106610001007,0.0201766999962274,255.23156250000466,[0.42333333333333334],[0.15],[1],[0],[0],[1.1940583999967203],['target'],1,001,2024-10-10_11h46.34.775,Visual search task,2024.1.5,None,2024-10-10 11h47.23.417261 +0530,
130,0,130,0,255.25991590000922,,255.23365400001057,5,255.25991590000922,255.25991590000922,0.011388099999749102,256.9813133000134,[-0.165],[-0.04666666666666667],[1],[0],[0],[1.7363581000099657],['target'],1,001,2024-10-10_11h46.34.775,Visual search task,2024.1.5,None,2024-10-10 11h47.23.417261 +0530,
131,0,131,0,257.0261266000016,,256.98337750000064,10,257.0261266000016,257.0261266000016,0.020637099994928576,259.21309020000626,[0.07833333333333334],[0.42333333333333334],[1],[0],[0],[2.209102199994959],['target'],1,001,2024-10-10_11h46.34.775,Visual search task,2024.1.5,None,2024-10-10 11h47.23.417261 +0530,
132,0,132,0,259.25906310000573,,259.21515820000786,10,259.25906310000573,259.25906310000573,0.01929569999629166,260.5128003000136,[0.07666666666666666],[0.1],[1],[0],[0],[1.278420399990864],['target'],1,001,2024-10-10_11h46.34.775,Visual search task,2024.1.5,None,2024-10-10 11h47.23.417261 +0530,
133,0,133,0,260.54211690000375,,260.5148740000004,10,260.54211690000375,260.54211690000375,0.01904379999905359,261.6637050000136,[0.16333333333333333],[0.285],[1],[0],[0],[1.129838100008783],['target'],1,001,2024-10-10_11h46.34.775,Visual search task,2024.1.5,None,2024-10-10 11h47.23.417261 +0530,
134,0,134,0,261.6934292000078,,261.66582120000385,5,261.6934292000078,261.6934292000078,0.011470299999928102,263.36371540000255,[-0.4766666666666667],[-0.07833333333333334],[1],[0],[0],[1.6865500999992946],['target'],1,001,2024-10-10_11h46.34.775,Visual search task,2024.1.5,None,2024-10-10 11h47.23.417261 +0530,
135,0,135,0,263.40836910001235,,263.3657641000027,10,263.40836910001235,263.40836910001235,0.02059000000008382,264.7809586000076,[-0.10166666666666667],[-0.315],[1],[0],[0],[1.3946705000125803],['target'],1,001,2024-10-10_11h46.34.775,Visual search task,2024.1.5,None,2024-10-10 11h47.23.417261 +0530,
136,0,136,0,264.8264283000026,,264.7830350000004,10,264.8264283000026,264.8264283000026,0.020350199993117712,267.83046000001195,[-0.35833333333333334],[0.3233333333333333],[1],[0],[0],[3.027208300001803],['target'],1,001,2024-10-10_11h46.34.775,Visual search task,2024.1.5,None,2024-10-10 11h47.23.417261 +0530,
137,0,137,0,267.87612790000276,,267.83288350001385,10,267.87612790000276,267.87612790000276,0.020588600003975444,269.7108761000127,[0.42333333333333334],[-0.29833333333333334],[1],[0],[0],[1.857850700005656],['target'],1,001,2024-10-10_11h46.34.775,Visual search task,2024.1.5,None,2024-10-10 11h47.23.417261 +0530,
138,0,138,0,269.7410784000094,,269.71293460000015,5,269.7410784000094,269.7410784000094,0.009484800000791438,271.16127720000804,[0.41333333333333333],[0.3983333333333333],[1],[0],[0],[1.4389061000110814],['target'],1,001,2024-10-10_11h46.34.775,Visual search task,2024.1.5,None,2024-10-10 11h47.23.417261 +0530,
139,0,139,0,271.1907377000025,,271.1633174000017,5,271.1907377000025,271.1907377000025,0.010556599998380989,272.4795867000066,[-0.405],[0.28833333333333333],[1],[0],[0],[1.3057675000018207],['target'],1,001,2024-10-10_11h46.34.775,Visual search task,2024.1.5,None,2024-10-10 11h47.23.417261 +0530,
140,0,140,0,272.52425430000585,,272.48166380000475,10,272.52425430000585,272.52425430000585,0.01918879999720957,274.1936990000104,[0.07],[0.22],[1],[0],[0],[1.6928853999997955],['target'],1,001,2024-10-10_11h46.34.775,Visual search task,2024.1.5,None,2024-10-10 11h47.23.417261 +0530,
141,0,141,0,274.24058190001233,,274.1958003000036,10,274.24058190001233,274.24058190001233,0.019136400005663745,275.46249300001364,[-0.2633333333333333],[0.21166666666666667],[1],[0],[0],[1.2475238999904832],['target'],1,001,2024-10-10_11h46.34.775,Visual search task,2024.1.5,None,2024-10-10 11h47.23.417261 +0530,
142,0,142,0,275.49047890001384,,275.46458460000576,5,275.49047890001384,275.49047890001384,0.011081200005719438,276.84519950000686,[-0.21666666666666667],[0.2833333333333333],[1],[0],[0],[1.3696533999900566],['target'],1,001,2024-10-10_11h46.34.775,Visual search task,2024.1.5,None,2024-10-10 11h47.23.417261 +0530,
143,0,143,0,276.8905778000044,,276.8472480000055,10,276.8905778000044,276.8905778000044,0.019888599999831058,278.229436900001,[0.018333333333333333],[0.24333333333333335],[1],[0],[0],[1.3622519000055036],['target'],1,001,2024-10-10_11h46.34.775,Visual search task,2024.1.5,None,2024-10-10 11h47.23.417261 +0530,
144,0,144,0,278.25798270000087,,278.23151000001235,5,278.25798270000087,278.25798270000087,0.01197350000438746,279.5284529000055,[0.36666666666666664],[-0.11166666666666666],[1],[0],[0],[1.2850222999986727],['target'],1,001,2024-10-10_11h46.34.775,Visual search task,2024.1.5,None,2024-10-10 11h47.23.417261 +0530,
145,0,145,0,279.57341680000536,,279.53049050000845,10,279.57341680000536,279.57341680000536,0.01962390000699088,281.72620620000816,[-0.16333333333333333],[0.37333333333333335],[1],[0],[0],[2.1761955999972997],['target'],1,001,2024-10-10_11h46.34.775,Visual search task,2024.1.5,None,2024-10-10 11h47.23.417261 +0530,
146,0,146,0,281.77293640001153,,281.7282760000089,10,281.77293640001153,281.77293640001153,0.01996010000584647,283.5116900000139,[0.058333333333333334],[-0.056666666666666664],[1],[0],[0],[1.763520000007702],['target'],1,001,2024-10-10_11h46.34.775,Visual search task,2024.1.5,None,2024-10-10 11h47.23.417261 +0530,
147,0,147,0,283.54066610000154,,283.51379790001374,5,283.54066610000154,283.54066610000154,0.011160899986862205,284.97814110000036,[0.16166666666666665],[-0.22833333333333333],[1],[0],[0],[1.4532270000054268],['target'],1,001,2024-10-10_11h46.34.775,Visual search task,2024.1.5,None,2024-10-10 11h47.23.417261 +0530,
148,0,148,0,285.00705200000084,,284.9802316000132,5,285.00705200000084,285.00705200000084,0.010813000000780448,286.5446166000038,[0.4216666666666667],[0.215],[1],[0],[0],[1.5535815000039292],['target'],1,001,2024-10-10_11h46.34.775,Visual search task,2024.1.5,None,2024-10-10 11h47.23.417261 +0530,
149,0,149,0,286.57263230001263,,286.54688680000254,5,286.57263230001263,286.57263230001263,0.011526700007379986,287.5095772000059,[0.47833333333333333],[0.19333333333333333],[1],[0],[0],[0.9512613999977475],['target'],1,001,2024-10-10_11h46.34.775,Visual search task,2024.1.5,None,2024-10-10 11h47.23.417261 +0530,
150,0,150,0,287.55557920000865,,287.51162970000587,10,287.55557920000865,287.55557920000865,0.01905050000641495,288.9101527000021,[0.29],[0.405],[1],[0],[0],[1.379539500005194],['target'],1,001,2024-10-10_11h46.34.775,Visual search task,2024.1.5,None,2024-10-10 11h47.23.417261 +0530,
151,0,151,0,288.9400422000035,,288.9122384000075,5,288.9400422000035,288.9400422000035,0.011065500002587214,290.2937879000092,[0.12333333333333334],[-0.255],[1],[0],[0],[1.3707500000018626],['target'],1,001,2024-10-10_11h46.34.775,Visual search task,2024.1.5,None,2024-10-10 11h47.23.417261 +0530,
152,0,152,0,290.32144370001333,,290.29583710001316,5,290.32144370001333,290.32144370001333,0.011682199998176657,291.3937958000024,[0.07333333333333333],[-0.34],[1],[0],[0],[1.0863133000093512],['target'],1,001,2024-10-10_11h46.34.775,Visual search task,2024.1.5,None,2024-10-10 11h47.23.417261 +0530,
153,0,153,0,291.43881140000303,,291.3958440000133,10,291.43881140000303,291.43881140000303,0.020186599998851307,293.0771340000065,[-0.03],[0.385],[1],[0],[0],[1.6611565999919549],['target'],1,001,2024-10-10_11h46.34.775,Visual search task,2024.1.5,None,2024-10-10 11h47.23.417261 +0530,
154,0,154,0,293.121724800003,,293.07928570000513,10,293.121724800003,293.121724800003,0.020686800009571016,294.32705360000546,[0.011666666666666667],[0.47],[1],[0],[0],[1.227138999995077],['target'],1,001,2024-10-10_11h46.34.775,Visual search task,2024.1.5,None,2024-10-10 11h47.23.417261 +0530,
155,0,155,0,294.35501730001124,,294.3291343000019,5,294.35501730001124,294.35501730001124,0.011805600006482564,296.17676890001167,[-0.485],[-0.06333333333333334],[1],[0],[0],[1.8358794999949168],['target'],1,001,2024-10-10_11h46.34.775,Visual search task,2024.1.5,None,2024-10-10 11h47.23.417261 +0530,
156,0,156,0,296.2056014000118,,296.17883200000506,5,296.2056014000118,296.2056014000118,0.010798600007547066,297.4430579000036,[-0.30666666666666664],[-0.19833333333333333],[1],[0],[0],[1.2534808999917004],['target'],1,001,2024-10-10_11h46.34.775,Visual search task,2024.1.5,None,2024-10-10 11h47.23.417261 +0530,
157,0,157,0,297.4888898000063,,297.44510840000294,10,297.4888898000063,297.4888898000063,0.02007259998936206,299.4096844000014,[0.3516666666666667],[0.03166666666666667],[1],[0],[0],[1.9445147000078578],['target'],1,001,2024-10-10_11h46.34.775,Visual search task,2024.1.5,None,2024-10-10 11h47.23.417261 +0530,
158,0,158,0,299.45531430000847,,299.41174840000167,10,299.45531430000847,299.45531430000847,0.020231599992257543,301.7090565000108,[-0.25],[0.42833333333333334],[1],[0],[0],[2.2771429999993416],['target'],1,001,2024-10-10_11h46.34.775,Visual search task,2024.1.5,None,2024-10-10 11h47.23.417261 +0530,
159,0,159,0,301.7549917000142,,301.7111845000036,10,301.7549917000142,301.7549917000142,0.020346600009361282,303.6252516000095,[-0.09833333333333333],[0.475],[1],[0],[0],[1.8938168000022415],['target'],1,001,2024-10-10_11h46.34.775,Visual search task,2024.1.5,None,2024-10-10 11h47.23.417261 +0530,
160,0,160,0,303.6700751000026,,303.62735630001407,10,303.6700751000026,303.6700751000026,0.02108040000894107,305.15871160000097,[0.17166666666666666],[0.3233333333333333],[1],[0],[0],[1.5103825999976834],['target'],1,001,2024-10-10_11h46.34.775,Visual search task,2024.1.5,None,2024-10-10 11h47.23.417261 +0530,
161,0,161,0,305.1869663000107,,305.16079690000333,5,305.1869663000107,305.1869663000107,0.011234599995077588,306.80888160000904,[-0.24],[0.0],[1],[0],[0],[1.636853500007419],['target'],1,001,2024-10-10_11h46.34.775,Visual search task,2024.1.5,None,2024-10-10 11h47.23.417261 +0530,
162,0,162,0,306.83729300000414,,306.81094040001335,5,306.83729300000414,306.83729300000414,0.01129509999009315,308.1602078000142,[0.3616666666666667],[-0.05],[1],[0],[0],[1.3381036000064341],['target'],1,001,2024-10-10_11h46.34.775,Visual search task,2024.1.5,None,2024-10-10 11h47.23.417261 +0530,
163,0,163,0,308.18720510001003,,308.1625846000097,5,308.18720510001003,308.18720510001003,0.016846099999384023,310.0399513000011,[-0.37666666666666665],[-0.12333333333333334],[1],[0],[0],[1.8607265999889933],['target'],1,001,2024-10-10_11h46.34.775,Visual search task,2024.1.5,None,2024-10-10 11h47.23.417261 +0530,
164,0,164,0,310.08595730000525,,310.04202050001186,10,310.08595730000525,310.08595730000525,0.019205599994165823,311.49150290001126,[-0.17166666666666666],[0.2733333333333333],[1],[0],[0],[1.430276099999901],['target'],1,001,2024-10-10_11h46.34.775,Visual search task,2024.1.5,None,2024-10-10 11h47.23.417261 +0530,
165,0,165,0,311.51912040000025,,311.4939175000036,5,311.51912040000025,311.51912040000025,0.010176099996897392,313.08963020000374,[-0.46166666666666667],[-0.36833333333333335],[1],[0],[0],[1.585661599994637],['target'],1,001,2024-10-10_11h46.34.775,Visual search task,2024.1.5,None,2024-10-10 11h47.23.417261 +0530,
166,0,166,0,313.13545160001377,,313.0917027000105,10,313.13545160001377,313.13545160001377,0.019111099987640046,315.057927700007,[0.27],[-0.39166666666666666],[1],[0],[0],[1.9472463999991305],['target'],1,001,2024-10-10_11h46.34.775,Visual search task,2024.1.5,None,2024-10-10 11h47.23.417261 +0530,
167,0,167,0,315.08616760000587,,315.0599971000047,5,315.08616760000587,315.08616760000587,0.011557100006029941,316.59071300001233,[0.17833333333333334],[0.39166666666666666],[1],[0],[0],[1.5192652999976417],['target'],1,001,2024-10-10_11h46.34.775,Visual search task,2024.1.5,None,2024-10-10 11h47.23.417261 +0530,
168,0,168,0,316.6195999000047,,316.59280990000116,5,316.6195999000047,316.6195999000047,0.010664799992810003,317.9898158000142,[-0.013333333333333334],[-0.165],[1],[0],[0],[1.3864281999995],['target'],1,001,2024-10-10_11h46.34.775,Visual search task,2024.1.5,None,2024-10-10 11h47.23.417261 +0530,
169,0,169,0,318.0197782000032,,317.9918983000098,5,318.0197782000032,318.0197782000032,0.011385299992980435,319.3724926000141,[0.14166666666666666],[-0.4116666666666667],[1],[0],[0],[1.369295399999828],['target'],1,001,2024-10-10_11h46.34.775,Visual search task,2024.1.5,None,2024-10-10 11h47.23.417261 +0530,
170,0,170,0,319.40272050000203,,319.374635900007,5,319.40272050000203,319.40272050000203,0.009997900007874705,320.52114120000624,[-0.06166666666666667],[-0.2783333333333333],[1],[0],[0],[1.136579600002733],['target'],1,001,2024-10-10_11h46.34.775,Visual search task,2024.1.5,None,2024-10-10 11h47.23.417261 +0530,
171,0,171,0,320.5513176000095,,320.5232059000118,5,320.5513176000095,320.5513176000095,0.009510899995802902,321.9736094000109,[-0.3233333333333333],[-0.3383333333333333],[1],[0],[0],[1.440887599994312],['target'],1,001,2024-10-10_11h46.34.775,Visual search task,2024.1.5,None,2024-10-10 11h47.23.417261 +0530,
172,0,172,0,322.01789070000814,,321.97565420001047,10,322.01789070000814,322.01789070000814,0.019810899990261532,323.0065043000068,[-0.38166666666666665],[-0.24666666666666667],[1],[0],[0],[1.011081099990406],['target'],1,001,2024-10-10_11h46.34.775,Visual search task,2024.1.5,None,2024-10-10 11h47.23.417261 +0530,
173,0,173,0,323.03653230000054,,323.00858210001024,5,323.03653230000054,323.03653230000054,0.011685799996485002,324.28936730000714,[0.051666666666666666],[0.15166666666666667],[1],[0],[0],[1.2691746999917086],['target'],1,001,2024-10-10_11h46.34.775,Visual search task,2024.1.5,None,2024-10-10 11h47.23.417261 +0530,
174,0,174,0,324.33549570001196,,324.2914246,10,324.33549570001196,324.33549570001196,0.020924299999023788,325.6556083000032,[0.34],[-0.215],[1],[0],[0],[1.3433222999883583],['target'],1,001,2024-10-10_11h46.34.775,Visual search task,2024.1.5,None,2024-10-10 11h47.23.417261 +0530,
175,0,175,0,325.7016763000138,,325.65876260001096,10,325.7016763000138,325.7016763000138,0.023583200003486127,327.2063620000117,[0.24833333333333332],[-0.31666666666666665],[1],[0],[0],[1.5241420999955153],['target'],1,001,2024-10-10_11h46.34.775,Visual search task,2024.1.5,None,2024-10-10 11h47.23.417261 +0530,
176,0,176,0,327.2517274000129,,327.2084571000014,10,327.2517274000129,327.2517274000129,0.02015209999808576,328.98842450001393,[-0.22833333333333333],[-0.21666666666666667],[1],[0],[0],[1.7598878999997396],['target'],1,001,2024-10-10_11h46.34.775,Visual search task,2024.1.5,None,2024-10-10 11h47.23.417261 +0530,
177,0,177,0,329.0183829000016,,328.9905039000005,5,329.0183829000016,329.0183829000016,0.011620400007814169,330.0888862000138,[-0.21166666666666667],[-0.34],[1],[0],[0],[1.0868302000017138],['target'],1,001,2024-10-10_11h46.34.775,Visual search task,2024.1.5,None,2024-10-10 11h47.23.417261 +0530,
178,0,178,0,330.1347742000071,,330.0909482000134,10,330.1347742000071,330.1347742000071,0.019864200003212318,338.68606480000017,[0.03333333333333333],[-0.20166666666666666],[1],[0],[0],[8.575275200011674],['target'],1,001,2024-10-10_11h46.34.775,Visual search task,2024.1.5,None,2024-10-10 11h47.23.417261 +0530,
179,0,179,0,338.71564840000065,,338.6881548000092,5,338.71564840000065,338.71564840000065,0.009732499995152466,340.6537024000136,[0.3933333333333333],[-0.16166666666666665],[1],[0],[0],[1.9559039000014309],['target'],1,001,2024-10-10_11h46.34.775,Visual search task,2024.1.5,None,2024-10-10 11h47.23.417261 +0530,
180,0,180,0,340.6990160000132,,340.6557654000062,10,340.6990160000132,340.6990160000132,0.020528499997453764,344.8180529000092,[-0.23333333333333334],[-0.13333333333333333],[1],[0],[0],[4.141799499993795],['target'],1,001,2024-10-10_11h46.34.775,Visual search task,2024.1.5,None,2024-10-10 11h47.23.417261 +0530,
181,0,181,0,344.84830130000773,,344.82013330000336,5,344.84830130000773,344.84830130000773,0.010028599994257092,346.5367952000088,[0.43333333333333335],[0.09],[1],[0],[0],[1.7067476000083843],['target'],1,001,2024-10-10_11h46.34.775,Visual search task,2024.1.5,None,2024-10-10 11h47.23.417261 +0530,
182,0,182,0,346.58155680001073,,346.53885040000023,10,346.58155680001073,346.58155680001073,0.021292899997206405,348.5699814000109,[0.11],[0.4066666666666667],[1],[0],[0],[2.0098881000012625],['target'],1,001,2024-10-10_11h46.34.775,Visual search task,2024.1.5,None,2024-10-10 11h47.23.417261 +0530,
183,0,183,0,348.61453790000814,,348.57212380001147,10,348.61453790000814,348.61453790000814,0.020136200007982552,351.2865870000096,[-0.26666666666666666],[-0.25166666666666665],[1],[0],[0],[2.694447500005481],['target'],1,001,2024-10-10_11h46.34.775,Visual search task,2024.1.5,None,2024-10-10 11h47.23.417261 +0530,
184,0,184,0,351.33203490001324,,351.28869020000275,10,351.33203490001324,351.33203490001324,0.02122149999195244,353.76733740000054,[-0.16333333333333333],[0.17],[1],[0],[0],[2.457546999998158],['target'],1,001,2024-10-10_11h46.34.775,Visual search task,2024.1.5,None,2024-10-10 11h47.23.417261 +0530,
185,0,185,0,353.81370330000937,,353.76940400000603,10,353.81370330000937,353.81370330000937,0.019671599991852418,355.6857798000128,[-0.30333333333333334],[0.3233333333333333],[1],[0],[0],[1.8967839999968419],['target'],1,001,2024-10-10_11h46.34.775,Visual search task,2024.1.5,None,2024-10-10 11h47.23.417261 +0530,
186,0,186,0,355.7147345000121,,355.6878737000079,5,355.7147345000121,355.7147345000121,0.011652999994112179,358.46792410001217,[-0.37333333333333335],[0.03833333333333333],[1],[0],[0],[2.7684382000006735],['target'],1,001,2024-10-10_11h46.34.775,Visual search task,2024.1.5,None,2024-10-10 11h47.23.417261 +0530,
187,0,187,0,358.51327070000116,,358.470003600014,10,358.51327070000116,358.51327070000116,0.02137679999577813,362.0509596000047,[0.405],[0.215],[1],[0],[0],[3.5596927000005962],['target'],1,001,2024-10-10_11h46.34.775,Visual search task,2024.1.5,None,2024-10-10 11h47.23.417261 +0530,
188,0,188,0,362.09631880000234,,362.0531117000064,10,362.09631880000234,362.09631880000234,0.021186699988902546,364.618303700001,[0.11],[-0.15],[1],[0],[0],[2.544109700000263],['target'],1,001,2024-10-10_11h46.34.775,Visual search task,2024.1.5,None,2024-10-10 11h47.23.417261 +0530,
189,0,189,0,364.64702390000457,,364.6203990000067,5,364.64702390000457,364.64702390000457,0.01151440000103321,371.9670127000136,[-0.2683333333333333],[0.028333333333333332],[1],[0],[0],[7.335210500008543],['target'],1,001,2024-10-10_11h46.34.775,Visual search task,2024.1.5,None,2024-10-10 11h47.23.417261 +0530,
190,0,190,0,371.9960807000025,,371.96908610001265,5,371.9960807000025,371.9960807000025,0.010878400004003197,376.0814042000129,[-0.41333333333333333],[0.295],[1],[0],[0],[4.101498100004392],['target'],1,001,2024-10-10_11h46.34.775,Visual search task,2024.1.5,None,2024-10-10 11h47.23.417261 +0530,
191,0,191,0,376.11098540000967,,376.08348930001375,5,376.11098540000967,376.11098540000967,0.010019499997724779,378.4828045000031,[0.17166666666666666],[0.18833333333333332],[1],[0],[0],[2.389325899988762],['target'],1,001,2024-10-10_11h46.34.775,Visual search task,2024.1.5,None,2024-10-10 11h47.23.417261 +0530,
192,0,192,0,378.52863010000146,,378.4849017000088,10,378.52863010000146,378.52863010000146,0.020516699994914234,383.382071,[-0.425],[-0.15833333333333333],[1],[0],[0],[4.876731700001983],['target'],1,001,2024-10-10_11h46.34.775,Visual search task,2024.1.5,None,2024-10-10 11h47.23.417261 +0530,
193,0,193,0,383.41218300000764,,383.38415990000067,5,383.41218300000764,383.41218300000764,0.011125500008347444,385.431685500007,[-0.49833333333333335],[-0.1],[1],[0],[0],[2.0364627999952063],['target'],1,001,2024-10-10_11h46.34.775,Visual search task,2024.1.5,None,2024-10-10 11h47.23.417261 +0530,
194,0,194,0,385.46123760000046,,385.4337504000141,5,385.46123760000046,385.46123760000046,0.010819600007380359,386.69605710000906,[0.22333333333333333],[-0.22666666666666666],[1],[0],[0],[1.2516069999983301],['target'],1,001,2024-10-10_11h46.34.775,Visual search task,2024.1.5,None,2024-10-10 11h47.23.417261 +0530,
195,0,195,0,386.72615490001044,,386.6981275000144,5,386.72615490001044,386.72615490001044,0.009889900000416674,388.1624937000015,[-0.09],[0.4683333333333333],[1],[0],[0],[1.4545422000082908],['target'],1,001,2024-10-10_11h46.34.775,Visual search task,2024.1.5,None,2024-10-10 11h47.23.417261 +0530,
196,0,196,0,388.19242390000727,,388.1645438000123,10,388.19242390000727,388.19242390000727,0.019364599997061305,390.4645179000072,[-0.3433333333333333],[-0.23166666666666666],[1],[0],[0],[2.280694200002472],['target'],1,001,2024-10-10_11h46.34.775,Visual search task,2024.1.5,None,2024-10-10 11h47.23.417261 +0530,
197,0,197,0,390.49387570000545,,390.4665939000115,5,390.49387570000545,390.49387570000545,0.011266699992120266,391.6646244000003,[-0.29833333333333334],[0.295],[1],[0],[0],[1.1867536999925505],['target'],1,001,2024-10-10_11h46.34.775,Visual search task,2024.1.5,None,2024-10-10 11h47.23.417261 +0530,
198,0,198,0,391.692088300013,,391.6666714000021,5,391.692088300013,391.692088300013,0.01134680000541266,392.963553300011,[0.09833333333333333],[0.16333333333333333],[1],[0],[0],[1.285645600000862],['target'],1,001,2024-10-10_11h46.34.775,Visual search task,2024.1.5,None,2024-10-10 11h47.23.417261 +0530,
199,0,199,0,392.99290710000787,,392.96558730000106,5,392.99290710000787,392.99290710000787,0.01045940000039991,394.4800006000005,[-0.235],[0.42333333333333334],[1],[0],[0],[1.504052899996168],['target'],1,001,2024-10-10_11h46.34.775,Visual search task,2024.1.5,None,2024-10-10 11h47.23.417261 +0530,
