trials.thisRepN,trials.thisTrialN,trials.thisN,trials.thisIndex,thisRow.t,notes,trial.started,num_distr,Fixation.started,target.started,mouse.started,trial.stopped,mouse.x,mouse.y,mouse.leftButton,mouse.midButton,mouse.rightButton,mouse.time,mouse.clicked_name,participant,session,date,expName,psychopyVersion,frameRate,expStart,
0,0,0,0,0.1403610999986995,,0.05437789999996312,5,0.1403610999986995,0.1403610999986995,0.11624820000724867,1.4959052000049269,[0.44333333333333336],[0.22],[1],[0],[0],[1.3802258999930928],['target'],2,001,2024-10-10_12h21.30.794,Visual search task,2024.1.5,None,2024-10-10 12h21.44.004755 +0530,
1,0,1,0,1.523563099995954,,1.501467900001444,5,1.523563099995954,1.523563099995954,0.010050799988675863,2.86128589999862,[0.31833333333333336],[-0.25833333333333336],[1],[0],[0],[1.3498390000022482],['target'],2,001,2024-10-10_12h21.30.794,Visual search task,2024.1.5,None,2024-10-10 12h21.44.004755 +0530,
2,0,2,0,2.8907897000026423,,2.863425499992445,5,2.8907897000026423,2.8907897000026423,0.012447599990991876,4.2119942999997875,[0.34],[-0.385],[1],[0],[0],[1.336160100006964],['target'],2,001,2024-10-10_12h21.30.794,Visual search task,2024.1.5,None,2024-10-10 12h21.44.004755 +0530,
3,0,3,0,4.240055899994331,,4.214120000004186,5,4.240055899994331,4.240055899994331,0.01097190000291448,5.877505199998268,[-0.39166666666666666],[-0.18],[1],[0],[0],[1.6525286999967648],['target'],2,001,2024-10-10_12h21.30.794,Visual search task,2024.1.5,None,2024-10-10 12h21.44.004755 +0530,
4,0,4,0,5.923073600002681,,5.879578899999615,10,5.923073600002681,5.923073600002681,0.01941660000011325,7.144194099993911,[0.12833333333333333],[0.06],[1],[0],[0],[1.2452821000042604],['target'],2,001,2024-10-10_12h21.30.794,Visual search task,2024.1.5,None,2024-10-10 12h21.44.004755 +0530,
5,0,5,0,7.173052900005132,,7.146819300003699,5,7.173052900005132,7.173052900005132,0.01241499999014195,8.577958599998965,[-0.48833333333333334],[0.31],[1],[0],[0],[1.4189574999909382],['target'],2,001,2024-10-10_12h21.30.794,Visual search task,2024.1.5,None,2024-10-10 12h21.44.004755 +0530,
6,0,6,0,8.607157199992798,,8.580031099991174,5,8.607157199992798,8.607157199992798,0.011640100012300536,11.925999899991439,"[-0.028333333333333332, 0.37, 0.245]","[0.42333333333333334, 0.22833333333333333, 0.30666666666666664]","[1, 1, 1]","[0, 0, 0]","[0, 0, 0]","[1.5362605999980588, 2.38661490000959, 3.3344572000059998]",['target'],2,001,2024-10-10_12h21.30.794,Visual search task,2024.1.5,None,2024-10-10 12h21.44.004755 +0530,
7,0,7,0,11.955426300002728,,11.92808729999524,5,11.955426300002728,11.955426300002728,0.010394400000222959,13.676068699991447,[0.07333333333333333],[-0.43333333333333335],[1],[0],[0],[1.737612299999455],['target'],2,001,2024-10-10_12h21.30.794,Visual search task,2024.1.5,None,2024-10-10 12h21.44.004755 +0530,
8,0,8,0,13.705284700001357,,13.678159999995842,10,13.705284700001357,13.705284700001357,0.019519800000125542,15.02600519999396,[0.4066666666666667],[0.40166666666666667],[1],[0],[0],[1.3284595000004629],['target'],2,001,2024-10-10_12h21.30.794,Visual search task,2024.1.5,None,2024-10-10 12h21.44.004755 +0530,
9,0,9,0,15.055122299992945,,15.02815169999667,10,15.055122299992945,15.055122299992945,0.019206800003303215,17.908775599993533,[-0.2866666666666667],[-0.315],[1],[0],[0],[2.8614380000071833],['target'],2,001,2024-10-10_12h21.30.794,Visual search task,2024.1.5,None,2024-10-10 12h21.44.004755 +0530,
10,0,10,0,17.954673699990963,,17.91098499999498,10,17.954673699990963,17.954673699990963,0.01954319998912979,19.943405500001973,[0.3466666666666667],[0.4166666666666667],[1],[0],[0],[2.0130241999868304],['target'],2,001,2024-10-10_12h21.30.794,Visual search task,2024.1.5,None,2024-10-10 12h21.44.004755 +0530,
11,0,11,0,19.98911290000251,,19.945490099999006,10,19.98911290000251,19.98911290000251,0.020267300002160482,22.725135200002114,[0.023333333333333334],[-0.255],[1],[0],[0],[2.7593787999940105],['target'],2,001,2024-10-10_12h21.30.794,Visual search task,2024.1.5,None,2024-10-10 12h21.44.004755 +0530,
12,0,12,0,22.754152800000156,,22.727204800001346,5,22.754152800000156,22.754152800000156,0.009911100001772866,24.19126089999918,[-0.45],[0.36666666666666664],[1],[0],[0],[1.4542213999957312],['target'],2,001,2024-10-10_12h21.30.794,Visual search task,2024.1.5,None,2024-10-10 12h21.44.004755 +0530,
13,0,13,0,24.23727549999603,,24.193361300000106,10,24.23727549999603,24.23727549999603,0.020376100001158193,25.45793390000472,[0.30666666666666664],[-0.085],[1],[0],[0],[1.244200599991018],['target'],2,001,2024-10-10_12h21.30.794,Visual search task,2024.1.5,None,2024-10-10 12h21.44.004755 +0530,
14,0,14,0,25.487159299998893,,25.460034100004123,5,25.487159299998893,25.487159299998893,0.010194300004513934,27.59207779999997,[-0.13333333333333333],[-0.41333333333333333],[1],[0],[0],[2.122037900000578],['target'],2,001,2024-10-10_12h21.30.794,Visual search task,2024.1.5,None,2024-10-10 12h21.44.004755 +0530,
15,0,15,0,27.638189000004786,,27.59417709999252,10,27.638189000004786,27.638189000004786,0.021577899999101646,30.007270300004166,[0.16666666666666666],[-0.3433333333333333],[1],[0],[0],[2.3916093000007095],['target'],2,001,2024-10-10_12h21.30.794,Visual search task,2024.1.5,None,2024-10-10 12h21.44.004755 +0530,
16,0,16,0,30.370262600001297,,30.009353300003568,10,30.370262600001297,30.370262600001297,0.35142330000235233,32.35828970000148,"[0.16666666666666666, -0.48333333333333334]","[-0.3433333333333333, 0.10166666666666667]","[1, 1]","[0, 0]","[0, 0]","[0.28114029999414925, 1.9976215999922715]",['target'],2,001,2024-10-10_12h21.30.794,Visual search task,2024.1.5,None,2024-10-10 12h21.44.004755 +0530,
17,0,17,0,32.386560400002054,,32.360420500001055,5,32.386560400002054,32.386560400002054,0.012004299991531298,33.97498070000438,[-0.22666666666666666],[-0.11333333333333333],[1],[0],[0],[1.6025640000007115],['target'],2,001,2024-10-10_12h21.30.794,Visual search task,2024.1.5,None,2024-10-10 12h21.44.004755 +0530,
18,0,18,0,34.02039399999194,,33.97709919999761,10,34.02039399999194,34.02039399999194,0.020299800002248958,36.873974599991925,[-0.021666666666666667],[-0.465],[1],[0],[0],[2.876659199988353],['target'],2,001,2024-10-10_12h21.30.794,Visual search task,2024.1.5,None,2024-10-10 12h21.44.004755 +0530,
19,0,19,0,36.90376859999378,,36.87606159999268,5,36.90376859999378,36.90376859999378,0.011553300006198697,38.54088299999421,[0.375],[0.34833333333333333],[1],[0],[0],[1.6533332000108203],['target'],2,001,2024-10-10_12h21.30.794,Visual search task,2024.1.5,None,2024-10-10 12h21.44.004755 +0530,
20,0,20,0,38.5703305999923,,38.542967500005034,5,38.5703305999923,38.5703305999923,0.012008799996692687,41.92146959999809,[0.44],[-0.3233333333333333],[1],[0],[0],[3.366532999993069],['target'],2,001,2024-10-10_12h21.30.794,Visual search task,2024.1.5,None,2024-10-10 12h21.44.004755 +0530,
21,0,21,0,41.951783800002886,,41.923595799991745,5,41.951783800002886,41.951783800002886,0.009783399989828467,43.35638869999093,[0.175],[-0.23666666666666666],[1],[0],[0],[1.4231868000060786],['target'],2,001,2024-10-10_12h21.30.794,Visual search task,2024.1.5,None,2024-10-10 12h21.44.004755 +0530,
22,0,22,0,43.4014840000018,,43.35848409999744,10,43.4014840000018,43.4014840000018,0.021561500005191192,44.64000269999087,[-0.17333333333333334],[-0.20166666666666666],[1],[0],[0],[1.2600788999989163],['target'],2,001,2024-10-10_12h21.30.794,Visual search task,2024.1.5,None,2024-10-10 12h21.44.004755 +0530,
23,0,23,0,44.6694043000025,,44.642162699994515,5,44.6694043000025,44.6694043000025,0.012837899994337931,46.07319789999747,[0.18833333333333332],[0.45],[1],[0],[0],[1.4183363000047393],['target'],2,001,2024-10-10_12h21.30.794,Visual search task,2024.1.5,None,2024-10-10 12h21.44.004755 +0530,
24,0,24,0,46.101443499996094,,46.07528039999306,5,46.101443499996094,46.101443499996094,0.011006999993696809,47.35638329999347,[-0.20666666666666667],[0.41833333333333333],[1],[0],[0],[1.270192700001644],['target'],2,001,2024-10-10_12h21.30.794,Visual search task,2024.1.5,None,2024-10-10 12h21.44.004755 +0530,
25,0,25,0,47.38460259999556,,47.3584700999927,5,47.38460259999556,47.38460259999556,0.01187210000352934,49.73713459999999,[0.4116666666666667],[-0.43666666666666665],[1],[0],[0],[2.3668991000013193],['target'],2,001,2024-10-10_12h21.30.794,Visual search task,2024.1.5,None,2024-10-10 12h21.44.004755 +0530,
26,0,26,0,49.76757579999685,,49.73923500000092,5,49.76757579999685,49.76757579999685,0.01031719999446068,51.50619050000387,[-0.043333333333333335],[-0.16],[1],[0],[0],[1.7566516999941086],['target'],2,001,2024-10-10_12h21.30.794,Visual search task,2024.1.5,None,2024-10-10 12h21.44.004755 +0530,
27,0,27,0,51.55105470000126,,51.5083231000026,10,51.55105470000126,51.55105470000126,0.020871600005193613,52.68760360000306,[0.3016666666666667],[-0.38666666666666666],[1],[0],[0],[1.1585422999924049],['target'],2,001,2024-10-10_12h21.30.794,Visual search task,2024.1.5,None,2024-10-10 12h21.44.004755 +0530,
28,0,28,0,52.717062499999884,,52.689688400001614,5,52.717062499999884,52.717062499999884,0.010108699992997572,54.35568680000142,[-0.26],[-0.265],[1],[0],[0],[1.655924699996831],['target'],2,001,2024-10-10_12h21.30.794,Visual search task,2024.1.5,None,2024-10-10 12h21.44.004755 +0530,
29,0,29,0,54.38452939999115,,54.35779100000218,5,54.38452939999115,54.38452939999115,0.012141300001530908,55.45396650000475,[-0.26166666666666666],[-0.11333333333333333],[1],[0],[0],[1.0840496000018902],['target'],2,001,2024-10-10_12h21.30.794,Visual search task,2024.1.5,None,2024-10-10 12h21.44.004755 +0530,
30,0,30,0,55.48337370000081,,55.45607289999316,5,55.48337370000081,55.48337370000081,0.010298599998350255,57.003512299997965,[-0.42],[-0.22666666666666666],[1],[0],[0],[1.5372500000084983],['target'],2,001,2024-10-10_12h21.30.794,Visual search task,2024.1.5,None,2024-10-10 12h21.44.004755 +0530,
31,0,31,0,57.05048979999265,,57.00560049999331,10,57.05048979999265,57.05048979999265,0.01925560001109261,58.871067400003085,[0.4033333333333333],[0.041666666666666664],[1],[0],[0],[1.8462151000130689],['target'],2,001,2024-10-10_12h21.30.794,Visual search task,2024.1.5,None,2024-10-10 12h21.44.004755 +0530,
32,0,32,0,58.900984699997935,,58.873226600000635,5,58.900984699997935,58.900984699997935,0.011862800005474128,60.88812859999598,[-0.43333333333333335],[0.095],[1],[0],[0],[2.0031198999931803],['target'],2,001,2024-10-10_12h21.30.794,Visual search task,2024.1.5,None,2024-10-10 12h21.44.004755 +0530,
33,0,33,0,60.917312399993534,,60.89019649999682,5,60.917312399993534,60.917312399993534,0.010834699991391972,62.33710730000166,[-0.31666666666666665],[0.4216666666666667],[1],[0],[0],[1.4361140999972122],['target'],2,001,2024-10-10_12h21.30.794,Visual search task,2024.1.5,None,2024-10-10 12h21.44.004755 +0530,
34,0,34,0,62.38383999999496,,62.33919050000259,10,62.38383999999496,62.38383999999496,0.020684800008893944,64.61863879999146,[-0.05333333333333334],[0.03333333333333333],[1],[0],[0],[2.258884199996828],['target'],2,001,2024-10-10_12h21.30.794,Visual search task,2024.1.5,None,2024-10-10 12h21.44.004755 +0530,
35,0,35,0,64.66555959999096,,64.62072849999822,10,64.66555959999096,64.66555959999096,0.01952230000460986,66.10291489999508,[0.37833333333333335],[0.28833333333333333],[1],[0],[0],[1.4627118999924278],['target'],2,001,2024-10-10_12h21.30.794,Visual search task,2024.1.5,None,2024-10-10 12h21.44.004755 +0530,
36,0,36,0,66.14864430000307,,66.10500989999855,10,66.14864430000307,66.14864430000307,0.01985949999652803,67.23711899999762,[0.32166666666666666],[0.32666666666666666],[1],[0],[0],[1.1122928999975557],['target'],2,001,2024-10-10_12h21.30.794,Visual search task,2024.1.5,None,2024-10-10 12h21.44.004755 +0530,
37,0,37,0,67.26640710000356,,67.23921390000032,5,67.26640710000356,67.26640710000356,0.011026000007404946,69.32042720000027,[-0.38166666666666665],[-0.36833333333333335],[1],[0],[0],[2.070373499998823],['target'],2,001,2024-10-10_12h21.30.794,Visual search task,2024.1.5,None,2024-10-10 12h21.44.004755 +0530,
38,0,38,0,69.3662037000031,,69.32252499999595,10,69.3662037000031,69.3662037000031,0.020402299996931106,70.95360330000403,[-0.20166666666666666],[0.10333333333333333],[1],[0],[0],[1.6107740000006743],['target'],2,001,2024-10-10_12h21.30.794,Visual search task,2024.1.5,None,2024-10-10 12h21.44.004755 +0530,
39,0,39,0,70.98270229999616,,70.95571300000302,5,70.98270229999616,70.98270229999616,0.011563800013391301,72.43605629999365,[0.255],[-0.0033333333333333335],[1],[0],[0],[1.4689023999962956],['target'],2,001,2024-10-10_12h21.30.794,Visual search task,2024.1.5,None,2024-10-10 12h21.44.004755 +0530,
40,0,40,0,72.4826563999959,,72.43818399999873,10,72.4826563999959,72.4826563999959,0.021157600000151433,73.95254489999206,[-0.04833333333333333],[-0.10666666666666667],[1],[0],[0],[1.4933257000084268],['target'],2,001,2024-10-10_12h21.30.794,Visual search task,2024.1.5,None,2024-10-10 12h21.44.004755 +0530,
41,0,41,0,73.99904749999405,,73.9546202999918,10,73.99904749999405,73.99904749999405,0.02139950000855606,75.65230889999657,[0.17],[0.3283333333333333],[1],[0],[0],[1.6764217000018107],['target'],2,001,2024-10-10_12h21.30.794,Visual search task,2024.1.5,None,2024-10-10 12h21.44.004755 +0530,
42,0,42,0,75.68196180000086,,75.65441249999276,5,75.68196180000086,75.68196180000086,0.010100500003318302,77.55256169999484,[0.22166666666666668],[-0.095],[1],[0],[0],[1.8881122000020696],['target'],2,001,2024-10-10_12h21.30.794,Visual search task,2024.1.5,None,2024-10-10 12h21.44.004755 +0530,
43,0,43,0,77.59735100000398,,77.55463620000228,10,77.59735100000398,77.59735100000398,0.020809299996471964,80.45182119999663,[-0.47333333333333333],[-0.455],[1],[0],[0],[2.8765056999982335],['target'],2,001,2024-10-10_12h21.30.794,Visual search task,2024.1.5,None,2024-10-10 12h21.44.004755 +0530,
44,0,44,0,80.49815830000443,,80.45391719999316,10,80.49815830000443,80.49815830000443,0.02106469999125693,82.73382809999748,[0.10833333333333334],[-0.08],[1],[0],[0],[2.258865199997672],['target'],2,001,2024-10-10_12h21.30.794,Visual search task,2024.1.5,None,2024-10-10 12h21.44.004755 +0530,
45,0,45,0,82.77987909999501,,82.73594529999536,10,82.77987909999501,82.77987909999501,0.02095799999369774,84.5515080000041,[-0.041666666666666664],[-0.405],[1],[0],[0],[1.7946747999958461],['target'],2,001,2024-10-10_12h21.30.794,Visual search task,2024.1.5,None,2024-10-10 12h21.44.004755 +0530,
46,0,46,0,84.58083459999762,,84.55363789999683,5,84.58083459999762,84.58083459999762,0.012187900007120334,85.93505919999734,[-0.4533333333333333],[-0.16166666666666665],[1],[0],[0],[1.3693732999963686],['target'],2,001,2024-10-10_12h21.30.794,Visual search task,2024.1.5,None,2024-10-10 12h21.44.004755 +0530,
47,0,47,0,85.97936509999272,,85.93714480000199,10,85.97936509999272,85.97936509999272,0.020542700003716163,87.6678821999958,[-0.19833333333333333],[0.3433333333333333],[1],[0],[0],[1.7102693000051659],['target'],2,001,2024-10-10_12h21.30.794,Visual search task,2024.1.5,None,2024-10-10 12h21.44.004755 +0530,
48,0,48,0,87.71371219999855,,87.66999149999174,10,87.71371219999855,87.71371219999855,0.019939699996029958,89.11726919999637,[-0.2633333333333333],[0.06333333333333334],[1],[0],[0],[1.4274629999999888],['target'],2,001,2024-10-10_12h21.30.794,Visual search task,2024.1.5,None,2024-10-10 12h21.44.004755 +0530,
49,0,49,0,89.16189279999526,,89.11937719999696,10,89.16189279999526,89.16189279999526,0.021101499994983897,91.63262469999609,[0.15166666666666667],[-0.06],[1],[0],[0],[2.492221699998481],['target'],2,001,2024-10-10_12h21.30.794,Visual search task,2024.1.5,None,2024-10-10 12h21.44.004755 +0530,
50,0,50,0,91.66219439999259,,91.63472649999312,5,91.66219439999259,91.66219439999259,0.010513000001083128,93.68427959999826,[-0.33166666666666667],[-0.20666666666666667],[1],[0],[0],[2.0391346999967936],['target'],2,001,2024-10-10_12h21.30.794,Visual search task,2024.1.5,None,2024-10-10 12h21.44.004755 +0530,
51,0,51,0,93.71142589999363,,93.68635989999166,5,93.71142589999363,93.71142589999363,0.011936700000660494,95.46717089999584,[-0.045],[0.27666666666666667],[1],[0],[0],[1.7690400999999838],['target'],2,001,2024-10-10_12h21.30.794,Visual search task,2024.1.5,None,2024-10-10 12h21.44.004755 +0530,
52,0,52,0,95.4962491000042,,95.46923279999464,5,95.4962491000042,95.4962491000042,0.012706000008620322,97.00033519999124,[-0.17],[0.215],[1],[0],[0],[1.518412300007185],['target'],2,001,2024-10-10_12h21.30.794,Visual search task,2024.1.5,None,2024-10-10 12h21.44.004755 +0530,
53,0,53,0,97.04619369999273,,97.00244029999885,10,97.04619369999273,97.04619369999273,0.02170339999429416,99.99917159999313,[-0.125],[-0.375],[1],[0],[0],[2.975211000011768],['target'],2,001,2024-10-10_12h21.30.794,Visual search task,2024.1.5,None,2024-10-10 12h21.44.004755 +0530,
54,0,54,0,100.04573179999716,,100.00135320000118,10,100.04573179999716,100.04573179999716,0.0201595999969868,102.08069200000318,[0.12166666666666667],[-0.285],[1],[0],[0],[2.0592260000121314],['target'],2,001,2024-10-10_12h21.30.794,Visual search task,2024.1.5,None,2024-10-10 12h21.44.004755 +0530,
55,0,55,0,102.11061570000311,,102.08282569999574,10,102.11061570000311,102.11061570000311,0.019581500004278496,103.46453919999476,[0.22333333333333333],[-0.17666666666666667],[1],[0],[0],[1.3622059000044828],['target'],2,001,2024-10-10_12h21.30.794,Visual search task,2024.1.5,None,2024-10-10 12h21.44.004755 +0530,
56,0,56,0,103.49369039999146,,103.46667520000483,10,103.49369039999146,103.49369039999146,0.01916759999585338,105.38289419999637,[0.16333333333333333],[0.22666666666666666],[1],[0],[0],[1.8971133000013651],['target'],2,001,2024-10-10_12h21.30.794,Visual search task,2024.1.5,None,2024-10-10 12h21.44.004755 +0530,
57,0,57,0,105.41193339999882,,105.38499500000034,5,105.41193339999882,105.41193339999882,0.01104539999505505,107.19872869999381,[0.4816666666666667],[0.055],[1],[0],[0],[1.802764100008062],['target'],2,001,2024-10-10_12h21.30.794,Visual search task,2024.1.5,None,2024-10-10 12h21.44.004755 +0530,
58,0,58,0,107.227765299991,,107.20080730000336,5,107.227765299991,107.227765299991,0.011730700003681704,109.730112499994,[0.4166666666666667],[-0.13833333333333334],[1],[0],[0],[2.5176644000021042],['target'],2,001,2024-10-10_12h21.30.794,Visual search task,2024.1.5,None,2024-10-10 12h21.44.004755 +0530,
59,0,59,0,109.7776492999983,,109.73216679999314,10,109.7776492999983,109.7776492999983,0.0201567000040086,112.19873819999339,[-0.335],[-0.38333333333333336],[1],[0],[0],[2.446431599993957],['target'],2,001,2024-10-10_12h21.30.794,Visual search task,2024.1.5,None,2024-10-10 12h21.44.004755 +0530,
60,0,60,0,112.22618969999894,,112.20085349999135,5,112.22618969999894,112.22618969999894,0.011282000006758608,113.814420900002,[0.32666666666666666],[0.435],[1],[0],[0],[1.602372800000012],['target'],2,001,2024-10-10_12h21.30.794,Visual search task,2024.1.5,None,2024-10-10 12h21.44.004755 +0530,
61,0,61,0,113.84353840000404,,113.81648919999134,5,113.84353840000404,113.84353840000404,0.010845700002391823,115.39625429999433,[-0.235],[-0.043333333333333335],[1],[0],[0],[1.5689968999940902],['target'],2,001,2024-10-10_12h21.30.794,Visual search task,2024.1.5,None,2024-10-10 12h21.44.004755 +0530,
62,0,62,0,115.42591799999354,,115.39833460000227,5,115.42591799999354,115.42591799999354,0.010717500001192093,117.34777769999346,[-0.4],[0.25833333333333336],[1],[0],[0],[1.9387352999910945],['target'],2,001,2024-10-10_12h21.30.794,Visual search task,2024.1.5,None,2024-10-10 12h21.44.004755 +0530,
63,0,63,0,117.3936692999996,,117.3498685999948,10,117.3936692999996,117.3936692999996,0.02029949999996461,119.38020269999106,[0.45],[0.22833333333333333],[1],[0],[0],[2.010119600003236],['target'],2,001,2024-10-10_12h21.30.794,Visual search task,2024.1.5,None,2024-10-10 12h21.44.004755 +0530,
64,0,64,0,119.42598299999372,,119.3823326999991,10,119.42598299999372,119.42598299999372,0.021028400005889125,121.26426899999205,[0.36666666666666664],[-0.23],[1],[0],[0],[1.8609748000017134],['target'],2,001,2024-10-10_12h21.30.794,Visual search task,2024.1.5,None,2024-10-10 12h21.44.004755 +0530,
65,0,65,0,121.30818649999856,,121.26636579999467,10,121.30818649999856,121.30818649999856,0.02105219999793917,123.1285046999983,[-0.4216666666666667],[-0.065],[1],[0],[0],[1.8411637999961386],['target'],2,001,2024-10-10_12h21.30.794,Visual search task,2024.1.5,None,2024-10-10 12h21.44.004755 +0530,
66,0,66,0,123.15821870000218,,123.1306673999934,5,123.15821870000218,123.15821870000218,0.00974300000234507,124.69445670000277,[0.23833333333333334],[-0.29833333333333334],[1],[0],[0],[1.5541382000083104],['target'],2,001,2024-10-10_12h21.30.794,Visual search task,2024.1.5,None,2024-10-10 12h21.44.004755 +0530,
67,0,67,0,124.72458280000137,,124.69655399999465,5,124.72458280000137,124.72458280000137,0.010135700009413995,126.57926450000377,[-0.37833333333333335],[0.18166666666666667],[1],[0],[0],[1.8726470999972662],['target'],2,001,2024-10-10_12h21.30.794,Visual search task,2024.1.5,None,2024-10-10 12h21.44.004755 +0530,
68,0,68,0,126.60727409999527,,126.58134089999658,5,126.60727409999527,126.60727409999527,0.011157600005390123,128.17928979999851,[-0.4633333333333333],[0.06666666666666667],[1],[0],[0],[1.5868489999993471],['target'],2,001,2024-10-10_12h21.30.794,Visual search task,2024.1.5,None,2024-10-10 12h21.44.004755 +0530,
69,0,69,0,128.20883410000533,,128.18137199999182,5,128.20883410000533,128.20883410000533,0.012108299997635186,129.7794861000002,[-0.17833333333333334],[-0.135],[1],[0],[0],[1.5860896000085631],['target'],2,001,2024-10-10_12h21.30.794,Visual search task,2024.1.5,None,2024-10-10 12h21.44.004755 +0530,
70,0,70,0,129.8251120999921,,129.78155620000325,10,129.8251120999921,129.8251120999921,0.02044670000032056,131.44590289999906,[-0.41833333333333333],[0.22666666666666666],[1],[0],[0],[1.644023400003789],['target'],2,001,2024-10-10_12h21.30.794,Visual search task,2024.1.5,None,2024-10-10 12h21.44.004755 +0530,
71,0,71,0,131.47458719999122,,131.44801310000184,5,131.47458719999122,131.47458719999122,0.010968700007651933,133.7950348000013,[0.21666666666666667],[-0.465],[1],[0],[0],[2.336129500006791],['target'],2,001,2024-10-10_12h21.30.794,Visual search task,2024.1.5,None,2024-10-10 12h21.44.004755 +0530,
72,0,72,0,133.82351390000258,,133.79713510000147,5,133.82351390000258,133.82351390000258,0.011025700005120598,136.2121666000021,[-0.07333333333333333],[0.405],[1],[0],[0],[2.404079300002195],['target'],2,001,2024-10-10_12h21.30.794,Visual search task,2024.1.5,None,2024-10-10 12h21.44.004755 +0530,
73,0,73,0,136.25640369999746,,136.21427309999126,10,136.25640369999746,136.25640369999746,0.02064470000914298,138.07715529999405,[-0.26],[0.23333333333333334],[1],[0],[0],[1.8422190999990562],['target'],2,001,2024-10-10_12h21.30.794,Visual search task,2024.1.5,None,2024-10-10 12h21.44.004755 +0530,
74,0,74,0,138.12285509999492,,138.07924099999946,10,138.12285509999492,138.12285509999492,0.019097400014288723,140.47806629999832,[-0.35333333333333333],[-0.18666666666666668],[1],[0],[0],[2.3798067000025185],['target'],2,001,2024-10-10_12h21.30.794,Visual search task,2024.1.5,None,2024-10-10 12h21.44.004755 +0530,
75,0,75,0,140.52380379999522,,140.48021219999646,10,140.52380379999522,140.52380379999522,0.020204899992677383,142.4755029999942,[-0.16166666666666665],[0.06833333333333333],[1],[0],[0],[1.9751388000004226],['target'],2,001,2024-10-10_12h21.30.794,Visual search task,2024.1.5,None,2024-10-10 12h21.44.004755 +0530,
76,0,76,0,142.52233550000528,,142.47761570000148,10,142.52233550000528,142.52233550000528,0.01937789999647066,144.34485969999514,[0.24],[0.4483333333333333],[1],[0],[0],[1.8478442999912659],['target'],2,001,2024-10-10_12h21.30.794,Visual search task,2024.1.5,None,2024-10-10 12h21.44.004755 +0530,
77,0,77,0,144.38970159999735,,144.34715210000286,10,144.38970159999735,144.38970159999735,0.021619499995722435,146.6100133,[-0.31166666666666665],[0.3016666666666667],[1],[0],[0],[2.2413904999993974],['target'],2,001,2024-10-10_12h21.30.794,Visual search task,2024.1.5,None,2024-10-10 12h21.44.004755 +0530,
78,0,78,0,146.6559644999943,,146.61211590000312,10,146.6559644999943,146.6559644999943,0.02067189999797847,149.5762512999936,[0.19],[-0.4166666666666667],[1],[0],[0],[2.9435315000009723],['target'],2,001,2024-10-10_12h21.30.794,Visual search task,2024.1.5,None,2024-10-10 12h21.44.004755 +0530,
79,0,79,0,149.6222351000033,,149.57838269999775,10,149.6222351000033,149.6222351000033,0.021056300000054762,152.61021689999325,[0.4716666666666667],[0.45],[1],[0],[0],[3.0108097000047565],['target'],2,001,2024-10-10_12h21.30.794,Visual search task,2024.1.5,None,2024-10-10 12h21.44.004755 +0530,
80,0,80,0,152.6392793999985,,152.6123449000006,5,152.6392793999985,152.6392793999985,0.011236400008783676,154.1264044999989,[-0.2916666666666667],[0.3433333333333333],[1],[0],[0],[1.5029554000066128],['target'],2,001,2024-10-10_12h21.30.794,Visual search task,2024.1.5,None,2024-10-10 12h21.44.004755 +0530,
81,0,81,0,154.17094050000014,,154.12848689999373,10,154.17094050000014,154.17094050000014,0.020109999997657724,155.2262117999926,[-0.24833333333333332],[0.3433333333333333],[1],[0],[0],[1.077623199991649],['target'],2,001,2024-10-10_12h21.30.794,Visual search task,2024.1.5,None,2024-10-10 12h21.44.004755 +0530,
82,0,82,0,155.27087680000113,,155.22832490000292,10,155.27087680000113,155.27087680000113,0.01995869999518618,157.80918060000113,[0.4033333333333333],[-0.14333333333333334],[1],[0],[0],[2.5609739999927115],['target'],2,001,2024-10-10_12h21.30.794,Visual search task,2024.1.5,None,2024-10-10 12h21.44.004755 +0530,
83,0,83,0,157.85385410000163,,157.81130689999554,10,157.85385410000163,157.85385410000163,0.020554600007017143,159.10738349999883,[0.37],[-0.07666666666666666],[1],[0],[0],[1.2756082999985665],['target'],2,001,2024-10-10_12h21.30.794,Visual search task,2024.1.5,None,2024-10-10 12h21.44.004755 +0530,
84,0,84,0,159.1534612999967,,159.10947640000086,10,159.1534612999967,159.1534612999967,0.01977210000040941,161.3914541999984,[-0.37833333333333335],[0.14833333333333334],[1],[0],[0],[2.262329999997746],['target'],2,001,2024-10-10_12h21.30.794,Visual search task,2024.1.5,None,2024-10-10 12h21.44.004755 +0530,
85,0,85,0,161.42143109999597,,161.39355049999722,5,161.42143109999597,161.42143109999597,0.0119810000032885,163.22513019999315,[-0.06166666666666667],[0.47833333333333333],[1],[0],[0],[1.8197321999905398],['target'],2,001,2024-10-10_12h21.30.794,Visual search task,2024.1.5,None,2024-10-10 12h21.44.004755 +0530,
86,0,86,0,163.25409790000413,,163.22720429999754,5,163.25409790000413,163.25409790000413,0.01300710000214167,164.69189919999917,[0.305],[-0.17666666666666667],[1],[0],[0],[1.4518158999999287],['target'],2,001,2024-10-10_12h21.30.794,Visual search task,2024.1.5,None,2024-10-10 12h21.44.004755 +0530,
87,0,87,0,164.73640660000092,,164.69406779999554,10,164.73640660000092,164.73640660000092,0.01997029999620281,166.77345219999552,[-0.25666666666666665],[-0.015],[1],[0],[0],[2.0594782999978634],['target'],2,001,2024-10-10_12h21.30.794,Visual search task,2024.1.5,None,2024-10-10 12h21.44.004755 +0530,
88,0,88,0,166.8204745999974,,166.7755543999956,10,166.8204745999974,166.8204745999974,0.021198200003709644,168.10702359999414,[-0.225],[-0.07166666666666667],[1],[0],[0],[1.310287000000244],['target'],2,001,2024-10-10_12h21.30.794,Visual search task,2024.1.5,None,2024-10-10 12h21.44.004755 +0530,
89,0,89,0,168.13576209999155,,168.10910829999193,5,168.13576209999155,168.13576209999155,0.010082500011776574,169.30705099999614,[0.2833333333333333],[-0.06833333333333333],[1],[0],[0],[1.1879489999992074],['target'],2,001,2024-10-10_12h21.30.794,Visual search task,2024.1.5,None,2024-10-10 12h21.44.004755 +0530,
90,0,90,0,169.33692780000274,,169.3091446000035,5,169.33692780000274,169.33692780000274,0.01192020000598859,171.27325099999143,[-0.17666666666666667],[-0.315],[1],[0],[0],[1.9523142999969423],['target'],2,001,2024-10-10_12h21.30.794,Visual search task,2024.1.5,None,2024-10-10 12h21.44.004755 +0530,
91,0,91,0,171.31901170000492,,171.27532889999566,10,171.31901170000492,171.31901170000492,0.021166300008189864,172.95733059999475,[-0.06],[0.32666666666666666],[1],[0],[0],[1.660910899998271],['target'],2,001,2024-10-10_12h21.30.794,Visual search task,2024.1.5,None,2024-10-10 12h21.44.004755 +0530,
92,0,92,0,173.00330919999396,,172.95943999999145,10,173.00330919999396,173.00330919999396,0.020733800003654324,174.34084760000405,[0.07],[0.1],[1],[0],[0],[1.3608139999996638],['target'],2,001,2024-10-10_12h21.30.794,Visual search task,2024.1.5,None,2024-10-10 12h21.44.004755 +0530,
93,0,93,0,174.38604379999742,,174.34307400000398,10,174.38604379999742,174.38604379999742,0.020845899998676032,177.90696310000203,[-0.295],[0.22333333333333333],[1],[0],[0],[3.543155300008948],['target'],2,001,2024-10-10_12h21.30.794,Visual search task,2024.1.5,None,2024-10-10 12h21.44.004755 +0530,
94,0,94,0,177.95176909999282,,177.90907330000482,10,177.95176909999282,177.95176909999282,0.02090180000232067,180.60657809999248,[0.07833333333333334],[-0.36666666666666664],[1],[0],[0],[2.676696100010304],['target'],2,001,2024-10-10_12h21.30.794,Visual search task,2024.1.5,None,2024-10-10 12h21.44.004755 +0530,
95,0,95,0,180.65145789999224,,180.60869219999586,10,180.65145789999224,180.65145789999224,0.020440899999812245,182.65650240000105,[-0.13],[-0.20333333333333334],[1],[0],[0],[2.0274270999943838],['target'],2,001,2024-10-10_12h21.30.794,Visual search task,2024.1.5,None,2024-10-10 12h21.44.004755 +0530,
96,0,96,0,182.70182059999206,,182.6586002999975,10,182.70182059999206,182.70182059999206,0.021062899992102757,185.12185739999404,[-0.16],[0.4216666666666667],[1],[0],[0],[2.442318899993552],['target'],2,001,2024-10-10_12h21.30.794,Visual search task,2024.1.5,None,2024-10-10 12h21.44.004755 +0530,
97,0,97,0,185.15106170000217,,185.12437499999942,5,185.15106170000217,185.15106170000217,0.013814799996907823,186.32147500000428,[0.023333333333333334],[0.16666666666666666],[1],[0],[0],[1.1835084000049392],['target'],2,001,2024-10-10_12h21.30.794,Visual search task,2024.1.5,None,2024-10-10 12h21.44.004755 +0530,
98,0,98,0,186.36784120000084,,186.32387300000119,10,186.36784120000084,186.36784120000084,0.02603609999641776,188.52257950000057,[-0.31166666666666665],[-0.14333333333333334],[1],[0],[0],[2.1728004999895347],['target'],2,001,2024-10-10_12h21.30.794,Visual search task,2024.1.5,None,2024-10-10 12h21.44.004755 +0530,
99,0,99,0,188.54976229999738,,188.5246710999927,5,188.54976229999738,188.54976229999738,0.011790299991844222,189.9552657000022,[0.31666666666666665],[0.07],[1],[0],[0],[1.4189171000034548],['target'],2,001,2024-10-10_12h21.30.794,Visual search task,2024.1.5,None,2024-10-10 12h21.44.004755 +0530,
100,0,100,0,189.9997177000041,,189.95738779999374,10,189.9997177000041,189.9997177000041,0.020881399992504157,191.437623299993,[-0.22833333333333333],[0.08],[1],[0],[0],[1.4594216999976197],['target'],2,001,2024-10-10_12h21.30.794,Visual search task,2024.1.5,None,2024-10-10 12h21.44.004755 +0530,
101,0,101,0,191.4841723999998,,191.4397195999918,10,191.4841723999998,191.4841723999998,0.0231426999962423,194.03708539999207,[-0.06],[0.42],[1],[0],[0],[2.5742140999936964],['target'],2,001,2024-10-10_12h21.30.794,Visual search task,2024.1.5,None,2024-10-10 12h21.44.004755 +0530,
102,0,102,0,194.06657229999837,,194.04108890000498,5,194.06657229999837,194.06657229999837,0.013062799989711493,195.38731940000434,[-0.21666666666666667],[-0.18],[1],[0],[0],[1.3334838000009768],['target'],2,001,2024-10-10_12h21.30.794,Visual search task,2024.1.5,None,2024-10-10 12h21.44.004755 +0530,
103,0,103,0,195.41633160000492,,195.38970539999718,5,195.41633160000492,195.41633160000492,0.011885300002177246,196.73622379999142,[-0.5116666666666667],[-0.24],[1],[0],[0],[1.3348378999944543],['target'],2,001,2024-10-10_12h21.30.794,Visual search task,2024.1.5,None,2024-10-10 12h21.44.004755 +0530,
104,0,104,0,196.76501999999164,,196.73837079999794,5,196.76501999999164,196.76501999999164,0.01032899999700021,198.13604599999962,[-0.11166666666666666],[0.35833333333333334],[1],[0],[0],[1.3874150000046939],['target'],2,001,2024-10-10_12h21.30.794,Visual search task,2024.1.5,None,2024-10-10 12h21.44.004755 +0530,
105,0,105,0,198.16520400000445,,198.13810349999403,5,198.16520400000445,198.16520400000445,0.0095281999965664,199.7356304999994,[0.43333333333333335],[0.2633333333333333],[1],[0],[0],[1.5881173000088893],['target'],2,001,2024-10-10_12h21.30.794,Visual search task,2024.1.5,None,2024-10-10 12h21.44.004755 +0530,
106,0,106,0,199.78192069999932,,199.737733499991,10,199.78192069999932,199.78192069999932,0.020516299991868436,202.6017942000035,[0.13833333333333334],[-0.44666666666666666],[1],[0],[0],[2.8435600999946473],['target'],2,001,2024-10-10_12h21.30.794,Visual search task,2024.1.5,None,2024-10-10 12h21.44.004755 +0530,
107,0,107,0,202.64800499999546,,202.60391360000358,10,202.64800499999546,202.64800499999546,0.019576099992264062,205.5008841999952,[-0.37666666666666665],[-0.02666666666666667],[1],[0],[0],[2.877463599987095],['target'],2,001,2024-10-10_12h21.30.794,Visual search task,2024.1.5,None,2024-10-10 12h21.44.004755 +0530,
108,0,108,0,205.54727169999387,,205.50300139999308,10,205.54727169999387,205.54727169999387,0.019130100001348183,207.3358229000005,[-0.35],[0.43833333333333335],[1],[0],[0],[1.8138386999926297],['target'],2,001,2024-10-10_12h21.30.794,Visual search task,2024.1.5,None,2024-10-10 12h21.44.004755 +0530,
109,0,109,0,207.3653151000035,,207.3379031999939,5,207.3653151000035,207.3653151000035,0.011481399997137487,209.00218179999501,[-0.14],[-0.48],[1],[0],[0],[1.6528629000094952],['target'],2,001,2024-10-10_12h21.30.794,Visual search task,2024.1.5,None,2024-10-10 12h21.44.004755 +0530,
110,0,110,0,209.03204930000356,,209.004268699995,5,209.03204930000356,209.03204930000356,0.01167590000841301,210.4194262999954,[0.465],[-0.3566666666666667],[1],[0],[0],[1.403610800000024],['target'],2,001,2024-10-10_12h21.30.794,Visual search task,2024.1.5,None,2024-10-10 12h21.44.004755 +0530,
111,0,111,0,210.46479260000342,,210.4215608999948,10,210.46479260000342,210.46479260000342,0.020253900001989678,211.9527694999997,[-0.25333333333333335],[0.35833333333333334],[1],[0],[0],[1.5110138000018196],['target'],2,001,2024-10-10_12h21.30.794,Visual search task,2024.1.5,None,2024-10-10 12h21.44.004755 +0530,
112,0,112,0,211.97986959999253,,211.95490640000207,5,211.97986959999253,211.97986959999253,0.011242100008530542,213.43567330000224,[-0.3466666666666667],[-0.39166666666666666],[1],[0],[0],[1.469466900001862],['target'],2,001,2024-10-10_12h21.30.794,Visual search task,2024.1.5,None,2024-10-10 12h21.44.004755 +0530,
113,0,113,0,213.48128179999185,,213.43778870000097,10,213.48128179999185,213.48128179999185,0.020713500009151176,215.0020627000049,[-0.24666666666666667],[-0.17166666666666666],[1],[0],[0],[1.543667899997672],['target'],2,001,2024-10-10_12h21.30.794,Visual search task,2024.1.5,None,2024-10-10 12h21.44.004755 +0530,
114,0,114,0,215.04670700000133,,215.0041501999949,10,215.04670700000133,215.04670700000133,0.020460500003537163,216.18378720000328,[-0.205],[-0.165],[1],[0],[0],[1.159272000004421],['target'],2,001,2024-10-10_12h21.30.794,Visual search task,2024.1.5,None,2024-10-10 12h21.44.004755 +0530,
115,0,115,0,216.21293179999338,,216.1858932000032,5,216.21293179999338,216.21293179999338,0.010056599989184178,217.41656220000004,[-0.2683333333333333],[-0.3883333333333333],[1],[0],[0],[1.2207366999937221],['target'],2,001,2024-10-10_12h21.30.794,Visual search task,2024.1.5,None,2024-10-10 12h21.44.004755 +0530,
116,0,116,0,217.46259969999664,,217.41871860000538,10,217.46259969999664,217.46259969999664,0.019059400001424365,219.33436320000328,[-0.07666666666666666],[0.4266666666666667],[1],[0],[0],[1.8966641999868443],['target'],2,001,2024-10-10_12h21.30.794,Visual search task,2024.1.5,None,2024-10-10 12h21.44.004755 +0530,
117,0,117,0,219.37945589999435,,219.3364494999987,10,219.37945589999435,219.37945589999435,0.020926800003508106,221.1012536000053,[0.24],[-0.435],[1],[0],[0],[1.7439188999996986],['target'],2,001,2024-10-10_12h21.30.794,Visual search task,2024.1.5,None,2024-10-10 12h21.44.004755 +0530,
118,0,118,0,221.12933260000136,,221.1034065999993,5,221.12933260000136,221.12933260000136,0.012165699998149648,222.28350540000247,[0.2733333333333333],[0.10833333333333334],[1],[0],[0],[1.1680833999998868],['target'],2,001,2024-10-10_12h21.30.794,Visual search task,2024.1.5,None,2024-10-10 12h21.44.004755 +0530,
119,0,119,0,222.32858359999955,,222.28557490000094,10,222.32858359999955,222.32858359999955,0.020379800000227988,223.46573500000522,[0.37666666666666665],[-0.085],[1],[0],[0],[1.1598684000055073],['target'],2,001,2024-10-10_12h21.30.794,Visual search task,2024.1.5,None,2024-10-10 12h21.44.004755 +0530,
120,0,120,0,223.51196319999872,,223.4678411999921,10,223.51196319999872,223.51196319999872,0.02042319999600295,225.48348019999685,[-0.35833333333333334],[-0.36666666666666664],[1],[0],[0],[1.99531990000105],['target'],2,001,2024-10-10_12h21.30.794,Visual search task,2024.1.5,None,2024-10-10 12h21.44.004755 +0530,
121,0,121,0,225.51317530000233,,225.48563759999524,5,225.51317530000233,225.51317530000233,0.0117173000035109,227.3995583999931,[-0.22666666666666666],[-0.12166666666666667],[1],[0],[0],[1.9023084999935236],['target'],2,001,2024-10-10_12h21.30.794,Visual search task,2024.1.5,None,2024-10-10 12h21.44.004755 +0530,
122,0,122,0,227.4448432999925,,227.4016164999921,10,227.4448432999925,227.4448432999925,0.021462200005771592,229.01681909999752,[0.4483333333333333],[0.15833333333333333],[1],[0],[0],[1.593829999997979],['target'],2,001,2024-10-10_12h21.30.794,Visual search task,2024.1.5,None,2024-10-10 12h21.44.004755 +0530,
123,0,123,0,229.0626062999945,,229.0189432000043,10,229.0626062999945,229.0626062999945,0.02075160000822507,231.749908400001,"[-0.3883333333333333, -0.355]","[-0.26166666666666666, -0.25333333333333335]","[1, 1]","[0, 0]","[0, 0]","[2.007896900002379, 2.71030150000297]",['target'],2,001,2024-10-10_12h21.30.794,Visual search task,2024.1.5,None,2024-10-10 12h21.44.004755 +0530,
124,0,124,0,231.7941378999967,,231.75204209999356,10,231.7941378999967,231.7941378999967,0.020664399999077432,233.69972399999097,[-0.23333333333333334],[-0.2833333333333333],[1],[0],[0],[1.9271643999963999],['target'],2,001,2024-10-10_12h21.30.794,Visual search task,2024.1.5,None,2024-10-10 12h21.44.004755 +0530,
125,0,125,0,233.7288428000029,,233.70179249999637,5,233.7288428000029,233.7288428000029,0.011098200004198588,235.03211929999816,[-0.215],[-0.33166666666666667],[1],[0],[0],[1.3193160999944666],['target'],2,001,2024-10-10_12h21.30.794,Visual search task,2024.1.5,None,2024-10-10 12h21.44.004755 +0530,
126,0,126,0,235.07863419999194,,235.03423360000306,10,235.07863419999194,235.07863419999194,0.02072339999722317,237.01341649999085,[0.4033333333333333],[-0.30833333333333335],[1],[0],[0],[1.9585204000031808],['target'],2,001,2024-10-10_12h21.30.794,Visual search task,2024.1.5,None,2024-10-10 12h21.44.004755 +0530,
127,0,127,0,237.04377629999362,,237.01555850000295,5,237.04377629999362,237.04377629999362,0.009782900000573136,238.6985066000052,[-0.03333333333333333],[-0.07333333333333333],[1],[0],[0],[1.6733704000071157],['target'],2,001,2024-10-10_12h21.30.794,Visual search task,2024.1.5,None,2024-10-10 12h21.44.004755 +0530,
128,0,128,0,238.72690619999776,,238.70055769999453,5,238.72690619999776,238.72690619999776,0.010313899998436682,240.14629930000228,[-0.16666666666666666],[0.15666666666666668],[1],[0],[0],[1.4354829999938374],['target'],2,001,2024-10-10_12h21.30.794,Visual search task,2024.1.5,None,2024-10-10 12h21.44.004755 +0530,
129,0,129,0,240.19319049999467,,240.1483809999918,10,240.19319049999467,240.19319049999467,0.02000439999392256,242.43168090000108,[0.09666666666666666],[-0.11833333333333333],[1],[0],[0],[2.2634189000091283],['target'],2,001,2024-10-10_12h21.30.794,Visual search task,2024.1.5,None,2024-10-10 12h21.44.004755 +0530,
130,0,130,0,242.4775995999953,,242.43380469999101,10,242.4775995999953,242.4775995999953,0.02080790000036359,244.19837600000028,[-0.49],[-0.2],[1],[0],[0],[1.743816300004255],['target'],2,001,2024-10-10_12h21.30.794,Visual search task,2024.1.5,None,2024-10-10 12h21.44.004755 +0530,
131,0,131,0,244.24470120000478,,244.200456999999,10,244.24470120000478,244.24470120000478,0.020985800001653843,245.94635270000435,[0.07833333333333334],[0.26166666666666666],[1],[0],[0],[1.7249268000014126],['target'],2,001,2024-10-10_12h21.30.794,Visual search task,2024.1.5,None,2024-10-10 12h21.44.004755 +0530,
132,0,132,0,245.99242880000384,,245.94843370000308,10,245.99242880000384,245.99242880000384,0.01877720000629779,247.94814369999222,[0.08],[-0.29],[1],[0],[0],[1.9809270999976434],['target'],2,001,2024-10-10_12h21.30.794,Visual search task,2024.1.5,None,2024-10-10 12h21.44.004755 +0530,
133,0,133,0,247.99355959999957,,247.95025759999407,10,247.99355959999957,247.99355959999957,0.020416500003193505,249.59766289999243,[0.38166666666666665],[-0.41333333333333333],[1],[0],[0],[1.6270610000065062],['target'],2,001,2024-10-10_12h21.30.794,Visual search task,2024.1.5,None,2024-10-10 12h21.44.004755 +0530,
134,0,134,0,249.6429957999935,,249.5997451000003,10,249.6429957999935,249.6429957999935,0.02095640001061838,251.9455455999996,[0.13666666666666666],[-0.14],[1],[0],[0],[2.324951600006898],['target'],2,001,2024-10-10_12h21.30.794,Visual search task,2024.1.5,None,2024-10-10 12h21.44.004755 +0530,
135,0,135,0,251.9912989000004,,251.94766969999182,10,251.9912989000004,251.9912989000004,0.01958740000554826,253.42869479999354,[-0.18666666666666668],[0.29],[1],[0],[0],[1.4615030999993905],['target'],2,001,2024-10-10_12h21.30.794,Visual search task,2024.1.5,None,2024-10-10 12h21.44.004755 +0530,
136,0,136,0,253.4749060000031,,253.43077949999133,10,253.4749060000031,253.4749060000031,0.019400200006202795,254.73043519999192,[-0.4483333333333333],[0.08],[1],[0],[0],[1.2803338000085205],['target'],2,001,2024-10-10_12h21.30.794,Visual search task,2024.1.5,None,2024-10-10 12h21.44.004755 +0530,
137,0,137,0,254.7755984999967,,254.73252799999318,10,254.7755984999967,254.7755984999967,0.021007899995311163,256.6449539000023,[-0.005],[0.135],[1],[0],[0],[1.8914931000035722],['target'],2,001,2024-10-10_12h21.30.794,Visual search task,2024.1.5,None,2024-10-10 12h21.44.004755 +0530,
138,0,138,0,256.69115990000137,,256.64708059999975,10,256.69115990000137,256.69115990000137,0.019004499990842305,259.1798604999931,[0.25166666666666665],[-0.17],[1],[0],[0],[2.5138622999947984],['target'],2,001,2024-10-10_12h21.30.794,Visual search task,2024.1.5,None,2024-10-10 12h21.44.004755 +0530,
139,0,139,0,259.2088008999999,,259.18195050000213,5,259.2088008999999,259.2088008999999,0.012034899991704151,261.1276019999932,[-0.365],[0.25166666666666665],[1],[0],[0],[1.9337260000029346],['target'],2,001,2024-10-10_12h21.30.794,Visual search task,2024.1.5,None,2024-10-10 12h21.44.004755 +0530,
140,0,140,0,261.174016399993,,261.129674900003,10,261.174016399993,261.174016399993,0.020004999998491257,263.79587390000233,[-0.38],[-0.14166666666666666],[1],[0],[0],[2.6462284000008367],['target'],2,001,2024-10-10_12h21.30.794,Visual search task,2024.1.5,None,2024-10-10 12h21.44.004755 +0530,
141,0,141,0,263.8239237999951,,263.79796599999827,5,263.8239237999951,263.8239237999951,0.010974600008921698,265.0794346000039,[0.23333333333333334],[-0.33666666666666667],[1],[0],[0],[1.2705669999995735],['target'],2,001,2024-10-10_12h21.30.794,Visual search task,2024.1.5,None,2024-10-10 12h21.44.004755 +0530,
142,0,142,0,265.1080621000001,,265.0815092999983,5,265.1080621000001,265.1080621000001,0.011348200001521036,266.6110956000048,[0.36],[0.13833333333333334],[1],[0],[0],[1.5183782000094652],['target'],2,001,2024-10-10_12h21.30.794,Visual search task,2024.1.5,None,2024-10-10 12h21.44.004755 +0530,
143,0,143,0,266.6579414000007,,266.613182999994,10,266.6579414000007,266.6579414000007,0.020983599999453872,267.89445229999546,[0.185],[0.125],[1],[0],[0],[1.2604069999943022],['target'],2,001,2024-10-10_12h21.30.794,Visual search task,2024.1.5,None,2024-10-10 12h21.44.004755 +0530,
144,0,144,0,267.9232742000022,,267.8965395999985,5,267.9232742000022,267.9232742000022,0.010884200004511513,269.56180049999966,[0.30666666666666664],[-0.4633333333333333],[1],[0],[0],[1.654442500002915],['target'],2,001,2024-10-10_12h21.30.794,Visual search task,2024.1.5,None,2024-10-10 12h21.44.004755 +0530,
145,0,145,0,269.59038059999875,,269.5639055999927,5,269.59038059999875,269.59038059999875,0.011946400001761504,271.0282340999984,[0.15666666666666668],[0.45166666666666666],[1],[0],[0],[1.4524603999889223],['target'],2,001,2024-10-10_12h21.30.794,Visual search task,2024.1.5,None,2024-10-10 12h21.44.004755 +0530,
146,0,146,0,271.05676179999136,,271.03035109999473,5,271.05676179999136,271.05676179999136,0.011392899992642924,272.24508710000373,[0.08333333333333333],[0.15166666666666667],[1],[0],[0],[1.2034541000030003],['target'],2,001,2024-10-10_12h21.30.794,Visual search task,2024.1.5,None,2024-10-10 12h21.44.004755 +0530,
147,0,147,0,272.2726055999956,,272.2472041000001,5,272.2726055999956,272.2726055999956,0.011356199989677407,273.59476500000164,[0.47833333333333333],[0.20666666666666667],[1],[0],[0],[1.3362299999862444],['target'],2,001,2024-10-10_12h21.30.794,Visual search task,2024.1.5,None,2024-10-10 12h21.44.004755 +0530,
148,0,148,0,273.6236421999929,,273.5968773999921,5,273.6236421999929,273.6236421999929,0.011051199995563366,275.5276384000026,[0.041666666666666664],[0.085],[1],[0],[0],[1.9198208000016166],['target'],2,001,2024-10-10_12h21.30.794,Visual search task,2024.1.5,None,2024-10-10 12h21.44.004755 +0530,
149,0,149,0,275.55638159999216,,275.52971139999863,5,275.55638159999216,275.55638159999216,0.011123200005386025,277.7417118000012,[0.4666666666666667],[-0.05],[1],[0],[0],[2.200948600002448],['target'],2,001,2024-10-10_12h21.30.794,Visual search task,2024.1.5,None,2024-10-10 12h21.44.004755 +0530,
150,0,150,0,277.7891888000013,,277.7438442999992,10,277.7891888000013,277.7891888000013,0.020436299993889406,279.94378190000134,[-0.3466666666666667],[-0.39666666666666667],[1],[0],[0],[2.179631499995594],['target'],2,001,2024-10-10_12h21.30.794,Visual search task,2024.1.5,None,2024-10-10 12h21.44.004755 +0530,
151,0,151,0,279.9896363000007,,279.9458788000047,10,279.9896363000007,279.9896363000007,0.02059450000524521,281.7598846000037,[-0.33666666666666667],[0.02],[1],[0],[0],[1.793542499988689],['target'],2,001,2024-10-10_12h21.30.794,Visual search task,2024.1.5,None,2024-10-10 12h21.44.004755 +0530,
152,0,152,0,281.7893072000006,,281.76197110000066,5,281.7893072000006,281.7893072000006,0.01164680000510998,283.14339529999415,[-0.08],[0.2816666666666667],[1],[0],[0],[1.3697993000096176],['target'],2,001,2024-10-10_12h21.30.794,Visual search task,2024.1.5,None,2024-10-10 12h21.44.004755 +0530,
153,0,153,0,283.1723514000041,,283.1454786999966,5,283.1723514000041,283.1723514000041,0.011071800006902777,284.65985660000297,[0.16],[-0.3233333333333333],[1],[0],[0],[1.5033861000119941],['target'],2,001,2024-10-10_12h21.30.794,Visual search task,2024.1.5,None,2024-10-10 12h21.44.004755 +0530,
154,0,154,0,284.70557249999547,,284.66194710000127,10,284.70557249999547,284.70557249999547,0.02001179999206215,288.7252568999975,[0.2816666666666667],[0.4716666666666667],[1],[0],[0],[4.043425299998489],['target'],2,001,2024-10-10_12h21.30.794,Visual search task,2024.1.5,None,2024-10-10 12h21.44.004755 +0530,
155,0,155,0,288.7717217000027,,288.7273428000044,10,288.7717217000027,288.7717217000027,0.020023399993078783,290.8082074999984,[-0.008333333333333333],[0.47833333333333333],[1],[0],[0],[2.0609204999927897],['target'],2,001,2024-10-10_12h21.30.794,Visual search task,2024.1.5,None,2024-10-10 12h21.44.004755 +0530,
156,0,156,0,290.8536393999966,,290.81030949999695,10,290.8536393999966,290.8536393999966,0.019015800004126504,291.9919988000038,[0.41333333333333333],[-0.06333333333333334],[1],[0],[0],[1.1627853000100004],['target'],2,001,2024-10-10_12h21.30.794,Visual search task,2024.1.5,None,2024-10-10 12h21.44.004755 +0530,
157,0,157,0,292.02024399999937,,291.9940792999987,5,292.02024399999937,292.02024399999937,0.009148200013441965,293.6418851999915,[-0.25],[0.36666666666666664],[1],[0],[0],[1.6387380999949528],['target'],2,001,2024-10-10_12h21.30.794,Visual search task,2024.1.5,None,2024-10-10 12h21.44.004755 +0530,
158,0,158,0,293.67156299999624,,293.64398999999685,5,293.67156299999624,293.67156299999624,0.00999279999814462,294.95896849999554,[-0.07166666666666667],[0.425],[1],[0],[0],[1.3051354000053834],['target'],2,001,2024-10-10_12h21.30.794,Visual search task,2024.1.5,None,2024-10-10 12h21.44.004755 +0530,
159,0,159,0,294.98682160000317,,294.9610485000012,5,294.98682160000317,294.98682160000317,0.010985800006892532,296.05842760000087,[-0.12333333333333334],[0.06],[1],[0],[0],[1.086480699988897],['target'],2,001,2024-10-10_12h21.30.794,Visual search task,2024.1.5,None,2024-10-10 12h21.44.004755 +0530,
160,0,160,0,296.1040731999965,,296.06052179999824,10,296.1040731999965,296.1040731999965,0.019779499998549,297.75742749999336,[-0.45],[-0.245],[1],[0],[0],[1.6771810999925947],['target'],2,001,2024-10-10_12h21.30.794,Visual search task,2024.1.5,None,2024-10-10 12h21.44.004755 +0530,
161,0,161,0,297.78709929999604,,297.7595885000046,5,297.78709929999604,297.78709929999604,0.01220399999874644,299.5403825999965,[-0.015],[0.09833333333333333],[1],[0],[0],[1.7687655000045197],['target'],2,001,2024-10-10_12h21.30.794,Visual search task,2024.1.5,None,2024-10-10 12h21.44.004755 +0530,
162,0,162,0,299.58658149999974,,299.5428299999912,10,299.58658149999974,299.58658149999974,0.02418740000575781,300.9573594999965,[0.49333333333333335],[-0.05333333333333334],[1],[0],[0],[1.3905809999996563],['target'],2,001,2024-10-10_12h21.30.794,Visual search task,2024.1.5,None,2024-10-10 12h21.44.004755 +0530,
163,0,163,0,300.9868476999982,,300.959448900001,5,300.9868476999982,300.9868476999982,0.011275400000158697,302.7908652000042,[-0.08333333333333333],[0.335],[1],[0],[0],[1.8202125999960117],['target'],2,001,2024-10-10_12h21.30.794,Visual search task,2024.1.5,None,2024-10-10 12h21.44.004755 +0530,
164,0,164,0,302.82002909999574,,302.79294440000376,5,302.82002909999574,302.82002909999574,0.012334099999861792,304.40474769999855,[-0.41833333333333333],[0.14],[1],[0],[0],[1.5995522000011988],['target'],2,001,2024-10-10_12h21.30.794,Visual search task,2024.1.5,None,2024-10-10 12h21.44.004755 +0530,
165,0,165,0,304.43524750000506,,304.40685899999517,10,304.43524750000506,304.43524750000506,0.01923920000263024,306.1887233000016,[-0.2683333333333333],[-0.375],[1],[0],[0],[1.7627143999998225],['target'],2,001,2024-10-10_12h21.30.794,Visual search task,2024.1.5,None,2024-10-10 12h21.44.004755 +0530,
166,0,166,0,306.21817730000475,,306.19083979999414,10,306.21817730000475,306.21817730000475,0.019581899992772378,309.89036099999794,[-0.025],[-0.0033333333333333335],[1],[0],[0],[3.6799334999959683],['target'],2,001,2024-10-10_12h21.30.794,Visual search task,2024.1.5,None,2024-10-10 12h21.44.004755 +0530,
167,0,167,0,309.934703299994,,309.89246750000166,10,309.934703299994,309.934703299994,0.022405299998354167,311.7063743000035,[0.21666666666666667],[-0.4],[1],[0],[0],[1.7915769999963231],['target'],2,001,2024-10-10_12h21.30.794,Visual search task,2024.1.5,None,2024-10-10 12h21.44.004755 +0530,
168,0,168,0,311.75092039999436,,311.7084743000014,10,311.75092039999436,311.75092039999436,0.021559200002229773,313.27310910000233,[0.15166666666666667],[-0.1],[1],[0],[0],[1.543083900003694],['target'],2,001,2024-10-10_12h21.30.794,Visual search task,2024.1.5,None,2024-10-10 12h21.44.004755 +0530,
169,0,169,0,313.3186438999983,,313.2752165999991,10,313.3186438999983,313.3186438999983,0.020438499996089377,315.60583299999416,[-0.38333333333333336],[-0.2916666666666667],[1],[0],[0],[2.310195800004294],['target'],2,001,2024-10-10_12h21.30.794,Visual search task,2024.1.5,None,2024-10-10 12h21.44.004755 +0530,
170,0,170,0,315.63490839999577,,315.6080401999934,5,315.63490839999577,315.63490839999577,0.012446300010196865,317.8059659999999,[0.23166666666666666],[0.185],[1],[0],[0],[2.185543699990376],['target'],2,001,2024-10-10_12h21.30.794,Visual search task,2024.1.5,None,2024-10-10 12h21.44.004755 +0530,
171,0,171,0,317.8344939999952,,317.80810070000007,5,317.8344939999952,317.8344939999952,0.014218399999663234,319.03849069999706,[0.125],[-0.06],[1],[0],[0],[1.2161927999986801],['target'],2,001,2024-10-10_12h21.30.794,Visual search task,2024.1.5,None,2024-10-10 12h21.44.004755 +0530,
172,0,172,0,319.0834058000037,,319.0405829999945,10,319.0834058000037,319.0834058000037,0.020075400010682642,320.4552790000016,[0.41],[0.42],[1],[0],[0],[1.3946385000017472],['target'],2,001,2024-10-10_12h21.30.794,Visual search task,2024.1.5,None,2024-10-10 12h21.44.004755 +0530,
173,0,173,0,320.50092479999876,,320.4574806000019,10,320.50092479999876,320.50092479999876,0.020784799999091774,321.554695800005,[0.11833333333333333],[0.05333333333333334],[1],[0],[0],[1.0765206000069156],['target'],2,001,2024-10-10_12h21.30.794,Visual search task,2024.1.5,None,2024-10-10 12h21.44.004755 +0530,
174,0,174,0,321.59994590000133,,321.5567926999938,10,321.59994590000133,321.59994590000133,0.023549799996544607,323.55489460000535,[-0.37166666666666665],[-0.4066666666666667],[1],[0],[0],[1.9746649000007892],['target'],2,001,2024-10-10_12h21.30.794,Visual search task,2024.1.5,None,2024-10-10 12h21.44.004755 +0530,
175,0,175,0,323.583807300005,,323.55698649999977,5,323.583807300005,323.583807300005,0.012458900004276074,324.92154880000453,[0.29333333333333333],[-0.46],[1],[0],[0],[1.3521970000001602],['target'],2,001,2024-10-10_12h21.30.794,Visual search task,2024.1.5,None,2024-10-10 12h21.44.004755 +0530,
176,0,176,0,324.95071059999464,,324.9237340999971,5,324.95071059999464,324.95071059999464,0.011325200001010671,326.0876932999963,[0.19166666666666668],[-0.13333333333333333],[1],[0],[0],[1.1527392999996664],['target'],2,001,2024-10-10_12h21.30.794,Visual search task,2024.1.5,None,2024-10-10 12h21.44.004755 +0530,
177,0,177,0,326.1158878999995,,326.0898070999974,5,326.1158878999995,326.1158878999995,0.011067100000218488,327.9043563000014,[0.43666666666666665],[-0.43666666666666665],[1],[0],[0],[1.803579900006298],['target'],2,001,2024-10-10_12h21.30.794,Visual search task,2024.1.5,None,2024-10-10 12h21.44.004755 +0530,
178,0,178,0,327.93345240000053,,327.9064282000036,5,327.93345240000053,327.93345240000053,0.015900300000794232,329.13729420000163,[-0.013333333333333334],[0.13166666666666665],[1],[0],[0],[1.2150528999918606],['target'],2,001,2024-10-10_12h21.30.794,Visual search task,2024.1.5,None,2024-10-10 12h21.44.004755 +0530,
179,0,179,0,329.1833343000035,,329.13937879999867,10,329.1833343000035,329.1833343000035,0.020518999997875653,331.9206694000022,[-0.3333333333333333],[-0.3333333333333333],[1],[0],[0],[2.760803899989696],['target'],2,001,2024-10-10_12h21.30.794,Visual search task,2024.1.5,None,2024-10-10 12h21.44.004755 +0530,
180,0,180,0,331.9495905999938,,331.9243987999944,5,331.9495905999938,331.9495905999938,0.013476399995852262,333.28721609999775,[-0.17666666666666667],[-0.145],[1],[0],[0],[1.3496137000038289],['target'],2,001,2024-10-10_12h21.30.794,Visual search task,2024.1.5,None,2024-10-10 12h21.44.004755 +0530,
181,0,181,0,333.31610119999095,,333.2895944000047,5,333.31610119999095,333.31610119999095,0.01142979999713134,334.8700402999966,[0.44333333333333336],[0.21833333333333332],[1],[0],[0],[1.5691047000000253],['target'],2,001,2024-10-10_12h21.30.794,Visual search task,2024.1.5,None,2024-10-10 12h21.44.004755 +0530,
182,0,182,0,334.8978222000005,,334.8723028999957,5,334.8978222000005,334.8978222000005,0.011756899999454618,336.084915600004,[0.03833333333333333],[0.22166666666666668],[1],[0],[0],[1.2009779999934835],['target'],2,001,2024-10-10_12h21.30.794,Visual search task,2024.1.5,None,2024-10-10 12h21.44.004755 +0530,
183,0,183,0,336.11446939999587,,336.08705709999776,5,336.11446939999587,336.11446939999587,0.009704000010970049,337.85298409999814,"[-0.025, -0.03833333333333333]","[0.14833333333333334, 0.14833333333333334]","[1, 1]","[0, 0]","[0, 0]","[0.856490300007863, 1.7564176000014413]",['target'],2,001,2024-10-10_12h21.30.794,Visual search task,2024.1.5,None,2024-10-10 12h21.44.004755 +0530,
184,0,184,0,337.897824899992,,337.85508480000135,10,337.897824899992,337.897824899992,0.020174000004772097,339.30145299999276,[0.41833333333333333],[-0.021666666666666667],[1],[0],[0],[1.4262669000017922],['target'],2,001,2024-10-10_12h21.30.794,Visual search task,2024.1.5,None,2024-10-10 12h21.44.004755 +0530,
185,0,185,0,339.3305975999974,,339.3035286999948,5,339.3305975999974,339.3305975999974,0.010208099993178621,341.68596499999694,[-0.33166666666666667],[0.45166666666666666],[1],[0],[0],[2.3723067000100855],['target'],2,001,2024-10-10_12h21.30.794,Visual search task,2024.1.5,None,2024-10-10 12h21.44.004755 +0530,
186,0,186,0,341.7305312999961,,341.68806859999313,10,341.7305312999961,341.7305312999961,0.01990020000084769,343.73333809999167,[-0.16666666666666666],[0.06333333333333334],[1],[0],[0],[2.0254234000021825],['target'],2,001,2024-10-10_12h21.30.794,Visual search task,2024.1.5,None,2024-10-10 12h21.44.004755 +0530,
187,0,187,0,343.78201320000517,,343.73545249999734,10,343.78201320000517,343.78201320000517,0.021171100001083687,344.61799909999536,[-0.13166666666666665],[0.15833333333333333],[1],[0],[0],[0.8613985999982106],['target'],2,001,2024-10-10_12h21.30.794,Visual search task,2024.1.5,None,2024-10-10 12h21.44.004755 +0530,
188,0,188,0,344.6465631000028,,344.62014230000204,5,344.6465631000028,344.6465631000028,0.01114830000733491,345.8017258000036,[-0.3933333333333333],[-0.005],[1],[0],[0],[1.1705507000006037],['target'],2,001,2024-10-10_12h21.30.794,Visual search task,2024.1.5,None,2024-10-10 12h21.44.004755 +0530,
189,0,189,0,345.83000839999295,,345.80379439999524,5,345.83000839999295,345.83000839999295,0.010649799995007925,347.40203420000034,[-0.24],[-0.31833333333333336],[1],[0],[0],[1.5876640999922529],['target'],2,001,2024-10-10_12h21.30.794,Visual search task,2024.1.5,None,2024-10-10 12h21.44.004755 +0530,
190,0,190,0,347.4478039999958,,347.4041367000027,10,347.4478039999958,347.4478039999958,0.02030930000182707,349.1681269999972,[0.22666666666666666],[0.26],[1],[0],[0],[1.743839200004004],['target'],2,001,2024-10-10_12h21.30.794,Visual search task,2024.1.5,None,2024-10-10 12h21.44.004755 +0530,
191,0,191,0,349.1972784999962,,349.1702251999959,5,349.1972784999962,349.1972784999962,0.01202239999838639,350.30070120000164,[0.3433333333333333],[0.09],[1],[0],[0],[1.1185811000032118],['target'],2,001,2024-10-10_12h21.30.794,Visual search task,2024.1.5,None,2024-10-10 12h21.44.004755 +0530,
192,0,192,0,350.32938399999694,,350.302970299992,5,350.32938399999694,350.32938399999694,0.010358400002587587,351.5336829000007,[0.02],[0.15166666666666667],[1],[0],[0],[1.2205087000038475],['target'],2,001,2024-10-10_12h21.30.794,Visual search task,2024.1.5,None,2024-10-10 12h21.44.004755 +0530,
193,0,193,0,351.5793821999978,,351.5357537999953,10,351.5793821999978,351.5793821999978,0.02192900000954978,353.58450240000093,[-0.4033333333333333],[0.03333333333333333],[1],[0],[0],[2.0268410999997286],['target'],2,001,2024-10-10_12h21.30.794,Visual search task,2024.1.5,None,2024-10-10 12h21.44.004755 +0530,
194,0,194,0,353.6124864000012,,353.5866129999922,5,353.6124864000012,353.6124864000012,0.011341099991113879,354.9674884999986,[0.18],[0.4216666666666667],[1],[0],[0],[1.3695167000114452],['target'],2,001,2024-10-10_12h21.30.794,Visual search task,2024.1.5,None,2024-10-10 12h21.44.004755 +0530,
195,0,195,0,355.01329709999845,,354.9695814000006,10,355.01329709999845,355.01329709999845,0.01973770000040531,357.09827619999123,[-0.43666666666666665],[-0.4083333333333333],[1],[0],[0],[2.1090228000102798],['target'],2,001,2024-10-10_12h21.30.794,Visual search task,2024.1.5,None,2024-10-10 12h21.44.004755 +0530,
196,0,196,0,357.1282610999915,,357.1003930000006,5,357.1282610999915,357.1282610999915,0.010076999999000691,358.8836237999931,[0.25166666666666665],[0.17],[1],[0],[0],[1.7732381999958307],['target'],2,001,2024-10-10_12h21.30.794,Visual search task,2024.1.5,None,2024-10-10 12h21.44.004755 +0530,
197,0,197,0,358.91271530000085,,358.88594849999936,5,358.91271530000085,358.91271530000085,0.011052899993956089,360.74931089999154,[0.41],[-0.09],[1],[0],[0],[1.852468700002646],['target'],2,001,2024-10-10_12h21.30.794,Visual search task,2024.1.5,None,2024-10-10 12h21.44.004755 +0530,
198,0,198,0,360.77924599999096,,360.75147930000094,5,360.77924599999096,360.77924599999096,0.011218699990422465,362.28255309999804,[-0.04833333333333333],[-0.37166666666666665],[1],[0],[0],[1.520077000008314],['target'],2,001,2024-10-10_12h21.30.794,Visual search task,2024.1.5,None,2024-10-10 12h21.44.004755 +0530,
199,0,199,0,362.32908480000333,,362.284628399997,10,362.32908480000333,362.32908480000333,0.020753499993588775,363.5167580999987,[0.315],[-0.08],[1],[0],[0],[1.2114797999965958],['target'],2,001,2024-10-10_12h21.30.794,Visual search task,2024.1.5,None,2024-10-10 12h21.44.004755 +0530,
