trials.thisRepN,trials.thisTrialN,trials.thisN,trials.thisIndex,thisRow.t,notes,trial.started,num_distr,Fixation.started,target.started,mouse.started,trial.stopped,mouse.x,mouse.y,mouse.leftButton,mouse.midButton,mouse.rightButton,mouse.time,mouse.clicked_name,participant,session,date,expName,psychopyVersion,frameRate,expStart,
0,0,0,0,0.03404840000439435,,0.0035069000005023554,10,0.03404840000439435,0.03404840000439435,0.025630400006775744,2.2060993000050075,[0.02962962962962963],[-0.3925925925925926],[1],[0],[0],[2.1789728999865474],['target'],3,001,2024-10-10_12h34.18.398,Visual search task,2024.1.5,None,2024-10-10 12h34.25.735910 +0530,
1,0,1,0,2.235358299993095,,2.208845899993321,10,2.235358299993095,2.235358299993095,0.019730399988475256,4.5551352000038605,[-0.4287037037037037],[-0.3416666666666667],[1],[0],[0],[2.32660179999948],['target'],3,001,2024-10-10_12h34.18.398,Visual search task,2024.1.5,None,2024-10-10 12h34.25.735910 +0530,
2,0,2,0,4.584129599999869,,4.55767090000154,10,4.584129599999869,4.584129599999869,0.019729999999981374,7.105665700000827,[0.09259259259259259],[-0.24259259259259258],[1],[0],[0],[2.5280138999951305],['target'],3,001,2024-10-10_12h34.18.398,Visual search task,2024.1.5,None,2024-10-10 12h34.25.735910 +0530,
3,0,3,0,7.134824299995671,,7.107841000004555,10,7.134824299995671,7.134824299995671,0.02013850001094397,9.287836300005438,[-0.47129629629629627],[-0.20555555555555555],[1],[0],[0],[2.1598728999961168],['target'],3,001,2024-10-10_12h34.18.398,Visual search task,2024.1.5,None,2024-10-10 12h34.25.735910 +0530,
4,0,4,0,9.304487200002768,,9.290021099994192,5,9.304487200002768,9.304487200002768,0.00968079999438487,10.804272900000797,[-0.28055555555555556],[0.10092592592592593],[1],[0],[0],[1.504663800005801],['target'],3,001,2024-10-10_12h34.18.398,Visual search task,2024.1.5,None,2024-10-10 12h34.25.735910 +0530,
5,0,5,0,10.82041329999629,,10.80642710000393,5,10.82041329999629,10.82041329999629,0.009646099992096424,12.170690999992075,[-0.05925925925925926],[0.3416666666666667],[1],[0],[0],[1.3547029000037583],['target'],3,001,2024-10-10_12h34.18.398,Visual search task,2024.1.5,None,2024-10-10 12h34.25.735910 +0530,
6,0,6,0,12.1877475999936,,12.172855900003924,5,12.1877475999936,12.1877475999936,0.010358299987274222,14.087210400000913,[-0.23703703703703705],[-0.19166666666666668],[1],[0],[0],[1.9040526000026148],['target'],3,001,2024-10-10_12h34.18.398,Visual search task,2024.1.5,None,2024-10-10 12h34.25.735910 +0530,
7,0,7,0,14.11659389999113,,14.089638899997226,10,14.11659389999113,14.11659389999113,0.02030029999150429,17.60407909999776,[-0.0712962962962963],[0.010185185185185186],[1],[0],[0],[3.4935301000077743],['target'],3,001,2024-10-10_12h34.18.398,Visual search task,2024.1.5,None,2024-10-10 12h34.25.735910 +0530,
8,0,8,0,17.62144809999154,,17.606314999997267,5,17.62144809999154,17.62144809999154,0.009613699992769398,19.254181399999652,[-0.06388888888888888],[0.4101851851851852],[1],[0],[0],[1.6374529999884544],['target'],3,001,2024-10-10_12h34.18.398,Visual search task,2024.1.5,None,2024-10-10 12h34.25.735910 +0530,
9,0,9,0,19.284159799994086,,19.25635969999712,10,19.284159799994086,19.284159799994086,0.02109280000149738,21.82041849999223,[0.37407407407407406],[0.2064814814814815],[1],[0],[0],[2.5422199000022374],['target'],3,001,2024-10-10_12h34.18.398,Visual search task,2024.1.5,None,2024-10-10 12h34.25.735910 +0530,
10,0,10,0,21.849500800002716,,21.822595899997395,10,21.849500800002716,21.849500800002716,0.020073200008482672,28.003167000002577,[0.2935185185185185],[-0.22037037037037038],[1],[0],[0],[6.160168900009012],['target'],3,001,2024-10-10_12h34.18.398,Visual search task,2024.1.5,None,2024-10-10 12h34.25.735910 +0530,
11,0,11,0,28.020962399998098,,28.005318800001987,5,28.020962399998098,28.020962399998098,0.010321100009605289,29.769436599992332,[0.000925925925925926],[0.3824074074074074],[1],[0],[0],[1.7531033999985084],['target'],3,001,2024-10-10_12h34.18.398,Visual search task,2024.1.5,None,2024-10-10 12h34.25.735910 +0530,
12,0,12,0,29.798869499994908,,29.77169789999607,10,29.798869499994908,29.798869499994908,0.020404599999892525,31.635710999995354,[-0.24537037037037038],[0.45925925925925926],[1],[0],[0],[1.8432035000005271],['target'],3,001,2024-10-10_12h34.18.398,Visual search task,2024.1.5,None,2024-10-10 12h34.25.735910 +0530,
13,0,13,0,31.652690200004145,,31.638064400001895,5,31.652690200004145,31.652690200004145,0.010115099998074584,33.752281900000526,[-0.4703703703703704],[-0.2722222222222222],[1],[0],[0],[2.1033081999921706],['target'],3,001,2024-10-10_12h34.18.398,Visual search task,2024.1.5,None,2024-10-10 12h34.25.735910 +0530,
14,0,14,0,33.76974639999389,,33.75442579999799,5,33.76974639999389,33.76974639999389,0.009908600011840463,35.68521860000328,[-0.47314814814814815],[-0.11944444444444445],[1],[0],[0],[1.920427999997628],['target'],3,001,2024-10-10_12h34.18.398,Visual search task,2024.1.5,None,2024-10-10 12h34.25.735910 +0530,
15,0,15,0,35.70379139999568,,35.68739540000388,5,35.70379139999568,35.70379139999568,0.010419599988381378,37.00170999999682,[-0.22592592592592592],[0.037037037037037035],[1],[0],[0],[1.3031820000032894],['target'],3,001,2024-10-10_12h34.18.398,Visual search task,2024.1.5,None,2024-10-10 12h34.25.735910 +0530,
16,0,16,0,37.01906809999491,,37.00393049999548,5,37.01906809999491,37.01906809999491,0.009734400009620003,38.21814979999908,[-0.20092592592592592],[0.05462962962962963],[1],[0],[0],[1.2041842000035103],['target'],3,001,2024-10-10_12h34.18.398,Visual search task,2024.1.5,None,2024-10-10 12h34.25.735910 +0530,
17,0,17,0,38.235628800000995,,38.22029759999714,5,38.235628800000995,38.235628800000995,0.009717000008095056,40.10179369999969,[-0.05462962962962963],[0.08333333333333333],[1],[0],[0],[1.8710150999977486],['target'],3,001,2024-10-10_12h34.18.398,Visual search task,2024.1.5,None,2024-10-10 12h34.25.735910 +0530,
18,0,18,0,40.13240659999428,,40.104019299993524,10,40.13240659999428,40.13240659999428,0.020382000002427958,42.43343350000214,[-0.19444444444444445],[-0.36203703703703705],[1],[0],[0],[2.3091299000079744],['target'],3,001,2024-10-10_12h34.18.398,Visual search task,2024.1.5,None,2024-10-10 12h34.25.735910 +0530,
19,0,19,0,42.461525599996094,,42.43564080000215,10,42.461525599996094,42.461525599996094,0.01894390000961721,45.40054410000448,[0.18333333333333332],[-0.13425925925925927],[1],[0],[0],[2.946110300006694],['target'],3,001,2024-10-10_12h34.18.398,Visual search task,2024.1.5,None,2024-10-10 12h34.25.735910 +0530,
20,0,20,0,45.43068219999259,,45.402697600002284,10,45.43068219999259,45.43068219999259,0.020145899994531646,47.200544399995124,[-0.06296296296296296],[0.23148148148148148],[1],[0],[0],[1.7774308000080055],['target'],3,001,2024-10-10_12h34.18.398,Visual search task,2024.1.5,None,2024-10-10 12h34.25.735910 +0530,
21,0,21,0,47.218948399997316,,47.202708099997835,5,47.218948399997316,47.218948399997316,0.01008759999240283,48.550299800001085,[-0.23981481481481481],[0.1287037037037037],[1],[0],[0],[1.3371860000042943],['target'],3,001,2024-10-10_12h34.18.398,Visual search task,2024.1.5,None,2024-10-10 12h34.25.735910 +0530,
22,0,22,0,48.58077050000429,,48.55245730000024,10,48.58077050000429,48.58077050000429,0.020288800005801022,50.8166729999939,[-0.1537037037037037],[-0.31203703703703706],[1],[0],[0],[2.2432296999904793],['target'],3,001,2024-10-10_12h34.18.398,Visual search task,2024.1.5,None,2024-10-10 12h34.25.735910 +0530,
23,0,23,0,50.84687419999682,,50.81890349999594,10,50.84687419999682,50.84687419999682,0.019848899988573976,53.799677899995004,[-0.11574074074074074],[-0.4675925925925926],[1],[0],[0],[2.960708500002511],['target'],3,001,2024-10-10_12h34.18.398,Visual search task,2024.1.5,None,2024-10-10 12h34.25.735910 +0530,
24,0,24,0,53.81756989999849,,53.801858699996956,5,53.81756989999849,53.81756989999849,0.009705500007839873,55.48281469999347,[0.003703703703703704],[-0.12037037037037036],[1],[0],[0],[1.67054370000551],['target'],3,001,2024-10-10_12h34.18.398,Visual search task,2024.1.5,None,2024-10-10 12h34.25.735910 +0530,
25,0,25,0,55.51450669999758,,55.48502110000118,10,55.51450669999758,55.51450669999758,0.01990959999966435,57.38155829999596,[-0.3527777777777778],[0.12037037037037036],[1],[0],[0],[1.876724200003082],['target'],3,001,2024-10-10_12h34.18.398,Visual search task,2024.1.5,None,2024-10-10 12h34.25.735910 +0530,
26,0,26,0,57.39814750000369,,57.383851999999024,5,57.39814750000369,57.39814750000369,0.009675900000729598,59.46585559999221,[-0.1935185185185185],[-0.40370370370370373],[1],[0],[0],[2.0715515999909258],['target'],3,001,2024-10-10_12h34.18.398,Visual search task,2024.1.5,None,2024-10-10 12h34.25.735910 +0530,
27,0,27,0,59.49554750000243,,59.46807529999933,10,59.49554750000243,59.49554750000243,0.019912599993404,61.28203709999798,[-0.4166666666666667],[-0.19537037037037036],[1],[0],[0],[1.7932397999975365],['target'],3,001,2024-10-10_12h34.18.398,Visual search task,2024.1.5,None,2024-10-10 12h34.25.735910 +0530,
28,0,28,0,61.31092329999956,,61.2841946999979,10,61.31092329999956,61.31092329999956,0.019951700000092387,63.464162299991585,[0.011111111111111112],[0.44537037037037036],[1],[0],[0],[2.160163000007742],['target'],3,001,2024-10-10_12h34.18.398,Visual search task,2024.1.5,None,2024-10-10 12h34.25.735910 +0530,
29,0,29,0,63.48210999999719,,63.46632910000335,5,63.48210999999719,63.48210999999719,0.009778399995411746,65.6816589999944,[-0.3861111111111111],[-0.37222222222222223],[1],[0],[0],[2.204790400006459],['target'],3,001,2024-10-10_12h34.18.398,Visual search task,2024.1.5,None,2024-10-10 12h34.25.735910 +0530,
30,0,30,0,65.69915449999098,,65.68383259999973,5,65.69915449999098,65.69915449999098,0.009692899999208748,67.79692409999552,[0.4185185185185185],[-0.05648148148148148],[1],[0],[0],[2.103487300002598],['target'],3,001,2024-10-10_12h34.18.398,Visual search task,2024.1.5,None,2024-10-10 12h34.25.735910 +0530,
31,0,31,0,67.82555039999716,,67.79908440000145,10,67.82555039999716,67.82555039999716,0.018739699997240677,69.64753639999253,[0.0962962962962963],[-0.412962962962963],[1],[0],[0],[1.829083200005698],['target'],3,001,2024-10-10_12h34.18.398,Visual search task,2024.1.5,None,2024-10-10 12h34.25.735910 +0530,
32,0,32,0,69.66757370000414,,69.64990899999975,5,69.66757370000414,69.66757370000414,0.011914599992451258,73.0638803000038,[0.4444444444444444],[-0.15833333333333333],[1],[0],[0],[3.4014084999944316],['target'],3,001,2024-10-10_12h34.18.398,Visual search task,2024.1.5,None,2024-10-10 12h34.25.735910 +0530,
33,0,33,0,73.0927834000031,,73.06607939999958,10,73.0927834000031,73.0927834000031,0.019911399998818524,74.93018049999955,[-0.03425925925925926],[-0.10092592592592593],[1],[0],[0],[1.8435184999980265],['target'],3,001,2024-10-10_12h34.18.398,Visual search task,2024.1.5,None,2024-10-10 12h34.25.735910 +0530,
34,0,34,0,74.94759009999689,,74.93240419999347,5,74.94759009999689,74.94759009999689,0.009514799996395595,76.39683640000294,[-0.34814814814814815],[-0.16296296296296298],[1],[0],[0],[1.4548483000107808],['target'],3,001,2024-10-10_12h34.18.398,Visual search task,2024.1.5,None,2024-10-10 12h34.25.735910 +0530,
35,0,35,0,76.41400750000321,,76.39900370000396,5,76.41400750000321,76.41400750000321,0.009596799995051697,78.14564970000356,[-0.33240740740740743],[-0.3962962962962963],[1],[0],[0],[1.73711600000388],['target'],3,001,2024-10-10_12h34.18.398,Visual search task,2024.1.5,None,2024-10-10 12h34.25.735910 +0530,
36,0,36,0,78.17332709999755,,78.14778990000195,10,78.17332709999755,78.17332709999755,0.018618200003402308,80.24617519999447,[0.18611111111111112],[0.19814814814814816],[1],[0],[0],[2.0790470999927493],['target'],3,001,2024-10-10_12h34.18.398,Visual search task,2024.1.5,None,2024-10-10 12h34.25.735910 +0530,
37,0,37,0,80.27609479999228,,80.24836149999464,10,80.27609479999228,80.27609479999228,0.020193500007735565,81.61300729999493,[-0.1259259259259259],[0.01574074074074074],[1],[0],[0],[1.3441725000011502],['target'],3,001,2024-10-10_12h34.18.398,Visual search task,2024.1.5,None,2024-10-10 12h34.25.735910 +0530,
38,0,38,0,81.64204789999349,,81.61516980000306,10,81.64204789999349,81.64204789999349,0.019754199995077215,83.3626449000003,[0.41388888888888886],[0.1037037037037037],[1],[0],[0],[1.72743869999249],['target'],3,001,2024-10-10_12h34.18.398,Visual search task,2024.1.5,None,2024-10-10 12h34.25.735910 +0530,
39,0,39,0,83.38096579999547,,83.36479999999574,5,83.38096579999547,83.38096579999547,0.010061599998152815,85.11230789999536,[0.32407407407407407],[-0.1648148148148148],[1],[0],[0],[1.7368089000083273],['target'],3,001,2024-10-10_12h34.18.398,Visual search task,2024.1.5,None,2024-10-10 12h34.25.735910 +0530,
40,0,40,0,85.14159179999842,,85.11444439999468,10,85.14159179999842,85.14159179999842,0.019630499999038875,86.76212489999307,[-0.10740740740740741],[0.16574074074074074],[1],[0],[0],[1.627301800006535],['target'],3,001,2024-10-10_12h34.18.398,Visual search task,2024.1.5,None,2024-10-10 12h34.25.735910 +0530,
41,0,41,0,86.77972710000176,,86.76431749999756,5,86.77972710000176,86.77972710000176,0.00961940000706818,88.74434140000085,[0.44351851851851853],[0.2],[1],[0],[0],[1.9704943999968236],['target'],3,001,2024-10-10_12h34.18.398,Visual search task,2024.1.5,None,2024-10-10 12h34.25.735910 +0530,
42,0,42,0,88.76178770000115,,88.74648279999383,5,88.76178770000115,88.76178770000115,0.009907800005748868,89.94494479999412,[0.29907407407407405],[0.3388888888888889],[1],[0],[0],[1.1882811000104994],['target'],3,001,2024-10-10_12h34.18.398,Visual search task,2024.1.5,None,2024-10-10 12h34.25.735910 +0530,
43,0,43,0,89.97426869999617,,89.94708719999471,10,89.97426869999617,89.97426869999617,0.020250799992936663,92.74463299999479,[0.49537037037037035],[-0.3574074074074074],[1],[0],[0],[2.776920699994662],['target'],3,001,2024-10-10_12h34.18.398,Visual search task,2024.1.5,None,2024-10-10 12h34.25.735910 +0530,
44,0,44,0,92.77380429999903,,92.74680690000241,10,92.77380429999903,92.77380429999903,0.020174500008579344,94.6937193999911,[-0.33611111111111114],[0.24259259259259258],[1],[0],[0],[1.9268452999967849],['target'],3,001,2024-10-10_12h34.18.398,Visual search task,2024.1.5,None,2024-10-10 12h34.25.735910 +0530,
45,0,45,0,94.71141720000014,,94.69586969999364,5,94.71141720000014,94.71141720000014,0.009778599996934645,97.97700109999278,[-0.2916666666666667],[0.3351851851851852],[1],[0],[0],[3.2714357000077143],['target'],3,001,2024-10-10_12h34.18.398,Visual search task,2024.1.5,None,2024-10-10 12h34.25.735910 +0530,
46,0,46,0,98.00590419999207,,97.97914280000259,10,98.00590419999207,98.00590419999207,0.018531100009568036,100.49372289999155,[0.2324074074074074],[-0.2972222222222222],[1],[0],[0],[2.4953777000046102],['target'],3,001,2024-10-10_12h34.18.398,Visual search task,2024.1.5,None,2024-10-10 12h34.25.735910 +0530,
47,0,47,0,100.51241789999767,,100.49587620000239,5,100.51241789999767,100.51241789999767,0.010360300002503209,102.9101204000035,[-0.47962962962962963],[-0.25555555555555554],[1],[0],[0],[2.403408900005161],['target'],3,001,2024-10-10_12h34.18.398,Visual search task,2024.1.5,None,2024-10-10 12h34.25.735910 +0530,
48,0,48,0,102.9397137999913,,102.91229310000199,10,102.9397137999913,102.9397137999913,0.019833099999232218,106.80869350000285,[0.41388888888888886],[0.37222222222222223],[1],[0],[0],[3.876656600012211],['target'],3,001,2024-10-10_12h34.18.398,Visual search task,2024.1.5,None,2024-10-10 12h34.25.735910 +0530,
49,0,49,0,106.82626570000139,,106.81084540000302,5,106.82626570000139,106.82626570000139,0.009889599998132326,108.4920984999917,[-0.4083333333333333],[0.34444444444444444],[1],[0],[0],[1.6714158999966457],['target'],3,001,2024-10-10_12h34.18.398,Visual search task,2024.1.5,None,2024-10-10 12h34.25.735910 +0530,
50,0,50,0,108.5223748999997,,108.49424759999965,10,108.5223748999997,108.5223748999997,0.01947959999961313,110.37574160000077,[0.13425925925925927],[0.14629629629629629],[1],[0],[0],[1.8615908000065247],['target'],3,001,2024-10-10_12h34.18.398,Visual search task,2024.1.5,None,2024-10-10 12h34.25.735910 +0530,
51,0,51,0,110.39294530000188,,110.37793170000077,5,110.39294530000188,110.39294530000188,0.00953500000468921,112.5090191999916,[0.1962962962962963],[0.2388888888888889],[1],[0],[0],[2.121229600001243],['target'],3,001,2024-10-10_12h34.18.398,Visual search task,2024.1.5,None,2024-10-10 12h34.25.735910 +0530,
52,0,52,0,112.53886010000133,,112.51118669999414,10,112.53886010000133,112.53886010000133,0.02020769999944605,115.34180039999774,[0.11296296296296296],[-0.39351851851851855],[1],[0],[0],[2.8096661000017775],['target'],3,001,2024-10-10_12h34.18.398,Visual search task,2024.1.5,None,2024-10-10 12h34.25.735910 +0530,
53,0,53,0,115.35979869999574,,115.34400650000316,5,115.35979869999574,115.35979869999574,0.009381500000017695,116.90820409999287,[0.06111111111111111],[-0.1175925925925926],[1],[0],[0],[1.5541468000010354],['target'],3,001,2024-10-10_12h34.18.398,Visual search task,2024.1.5,None,2024-10-10 12h34.25.735910 +0530,
54,0,54,0,116.93805329999304,,116.91044110000075,10,116.93805329999304,116.93805329999304,0.01956600000266917,119.70790809999744,[-0.24259259259259258],[0.47685185185185186],[1],[0],[0],[2.77720299999055],['target'],3,001,2024-10-10_12h34.18.398,Visual search task,2024.1.5,None,2024-10-10 12h34.25.735910 +0530,
55,0,55,0,119.7372647000011,,119.71010850000312,10,119.7372647000011,119.7372647000011,0.019861400010995567,122.87396650000301,[-0.4583333333333333],[-0.36666666666666664],[1],[0],[0],[3.1436191000102554],['target'],3,001,2024-10-10_12h34.18.398,Visual search task,2024.1.5,None,2024-10-10 12h34.25.735910 +0530,
56,0,56,0,122.89234459999716,,122.87631999999576,5,122.89234459999716,122.89234459999716,0.010431400005472824,124.59071170000243,[-0.32685185185185184],[-0.4212962962962963],[1],[0],[0],[1.7032124000106705],['target'],3,001,2024-10-10_12h34.18.398,Visual search task,2024.1.5,None,2024-10-10 12h34.25.735910 +0530,
57,0,57,0,124.62009270000271,,124.59301409999898,10,124.62009270000271,124.62009270000271,0.019802000009804033,126.22292990000278,[-0.20185185185185187],[-0.20185185185185187],[1],[0],[0],[1.610097400000086],['target'],3,001,2024-10-10_12h34.18.398,Visual search task,2024.1.5,None,2024-10-10 12h34.25.735910 +0530,
58,0,58,0,126.25132729999314,,126.22511179999856,10,126.25132729999314,126.25132729999314,0.018702000001212582,129.38920760000474,[0.38055555555555554],[-0.3611111111111111],[1],[0],[0],[3.1454625999904238],['target'],3,001,2024-10-10_12h34.18.398,Visual search task,2024.1.5,None,2024-10-10 12h34.25.735910 +0530,
59,0,59,0,129.40719949999766,,129.3913743000012,5,129.40719949999766,129.40719949999766,0.010508999999728985,131.4398485999991,[-0.3314814814814815],[0.03333333333333333],[1],[0],[0],[2.0377237999928184],['target'],3,001,2024-10-10_12h34.18.398,Visual search task,2024.1.5,None,2024-10-10 12h34.25.735910 +0530,
60,0,60,0,131.47026360000018,,131.44199039999512,10,131.47026360000018,131.47026360000018,0.01992979999340605,133.27344239999366,[-0.02962962962962963],[0.33611111111111114],[1],[0],[0],[1.8116039000015007],['target'],3,001,2024-10-10_12h34.18.398,Visual search task,2024.1.5,None,2024-10-10 12h34.25.735910 +0530,
61,0,61,0,133.30288770000334,,133.27562889999535,10,133.30288770000334,133.30288770000334,0.019383200007723644,135.6227321000042,[0.41203703703703703],[-0.3888888888888889],[1],[0],[0],[2.3269020000007004],['target'],3,001,2024-10-10_12h34.18.398,Visual search task,2024.1.5,None,2024-10-10 12h34.25.735910 +0530,
62,0,62,0,135.65186620000168,,135.62489249999635,10,135.65186620000168,135.65186620000168,0.019572200006223284,137.35581660000025,[-0.22962962962962963],[0.19907407407407407],[1],[0],[0],[1.7105707000009716],['target'],3,001,2024-10-10_12h34.18.398,Visual search task,2024.1.5,None,2024-10-10 12h34.25.735910 +0530,
63,0,63,0,137.37280569999712,,137.3579938000039,5,137.37280569999712,137.37280569999712,0.009649999992689118,139.13871709999512,[0.3148148148148148],[-0.1425925925925926],[1],[0],[0],[1.7709509000123944],['target'],3,001,2024-10-10_12h34.18.398,Visual search task,2024.1.5,None,2024-10-10 12h34.25.735910 +0530,
64,0,64,0,139.1688770000037,,139.14096849999623,10,139.1688770000037,139.1688770000037,0.02020069998980034,141.87178539999877,[-0.001851851851851852],[-0.12685185185185185],[1],[0],[0],[2.7104595999990124],['target'],3,001,2024-10-10_12h34.18.398,Visual search task,2024.1.5,None,2024-10-10 12h34.25.735910 +0530,
65,0,65,0,141.9011024999927,,141.87395539999125,10,141.9011024999927,141.9011024999927,0.020033799999509938,144.70493089999945,[0.47962962962962963],[-0.24259259259259258],[1],[0],[0],[2.8105697999999393],['target'],3,001,2024-10-10_12h34.18.398,Visual search task,2024.1.5,None,2024-10-10 12h34.25.735910 +0530,
66,0,66,0,144.72200729999167,,144.7071067999932,5,144.72200729999167,144.72200729999167,0.009517300000879914,147.805134299997,[0.041666666666666664],[-0.044444444444444446],[1],[0],[0],[3.0885763999976916],['target'],3,001,2024-10-10_12h34.18.398,Visual search task,2024.1.5,None,2024-10-10 12h34.25.735910 +0530,
67,0,67,0,147.83473859999503,,147.80728340000496,10,147.83473859999503,147.83473859999503,0.019521399997756816,149.28754669999762,[-0.2],[0.11666666666666667],[1],[0],[0],[1.460160000002361],['target'],3,001,2024-10-10_12h34.18.398,Visual search task,2024.1.5,None,2024-10-10 12h34.25.735910 +0530,
68,0,68,0,149.3175401000044,,149.28972509999585,10,149.3175401000044,149.3175401000044,0.019637999997939914,151.28737229999388,[0.2953703703703704],[0.2777777777777778],[1],[0],[0],[1.9772615000110818],['target'],3,001,2024-10-10_12h34.18.398,Visual search task,2024.1.5,None,2024-10-10 12h34.25.735910 +0530,
69,0,69,0,151.30496880000283,,151.28956409999228,5,151.30496880000283,151.30496880000283,0.009606399995391257,153.12041560000216,[0.3037037037037037],[-0.16203703703703703],[1],[0],[0],[1.8207274000014877],['target'],3,001,2024-10-10_12h34.18.398,Visual search task,2024.1.5,None,2024-10-10 12h34.25.735910 +0530,
70,0,70,0,153.13858539999637,,153.1225887000037,5,153.13858539999637,153.13858539999637,0.010206199993262999,155.8198895999958,[0.2740740740740741],[-0.4722222222222222],[1],[0],[0],[2.6864327999937814],['target'],3,001,2024-10-10_12h34.18.398,Visual search task,2024.1.5,None,2024-10-10 12h34.25.735910 +0530,
71,0,71,0,155.83705800000462,,155.8220697999932,5,155.83705800000462,155.83705800000462,0.009802699991269037,157.40369979999377,[0.41388888888888886],[0.29907407407407405],[1],[0],[0],[1.5718661999999313],['target'],3,001,2024-10-10_12h34.18.398,Visual search task,2024.1.5,None,2024-10-10 12h34.25.735910 +0530,
72,0,72,0,157.4329396999965,,157.40591739999945,10,157.4329396999965,157.4329396999965,0.01963790001173038,158.9696113999962,[0.09814814814814815],[0.33796296296296297],[1],[0],[0],[1.5433020999917062],['target'],3,001,2024-10-10_12h34.18.398,Visual search task,2024.1.5,None,2024-10-10 12h34.25.735910 +0530,
73,0,73,0,158.98703200000455,,158.97183809999842,5,158.98703200000455,158.98703200000455,0.009683100011898205,161.3360188999941,[-0.4324074074074074],[-0.11018518518518519],[1],[0],[0],[2.354203700000653],['target'],3,001,2024-10-10_12h34.18.398,Visual search task,2024.1.5,None,2024-10-10 12h34.25.735910 +0530,
74,0,74,0,161.35372970000026,,161.3381836000044,5,161.35372970000026,161.35372970000026,0.009889299995847978,163.46886130000348,[0.44722222222222224],[0.31666666666666665],[1],[0],[0],[2.120143599997391],['target'],3,001,2024-10-10_12h34.18.398,Visual search task,2024.1.5,None,2024-10-10 12h34.25.735910 +0530,
75,0,75,0,163.49915010000404,,163.47106850000273,10,163.49915010000404,163.49915010000404,0.019802399998297915,166.0518638999929,[-0.3453703703703704],[-0.30092592592592593],[1],[0],[0],[2.560381999996025],['target'],3,001,2024-10-10_12h34.18.398,Visual search task,2024.1.5,None,2024-10-10 12h34.25.735910 +0530,
76,0,76,0,166.06953680000152,,166.05417319999833,5,166.06953680000152,166.06953680000152,0.009705600008601323,168.6846852000017,[-0.012037037037037037],[-0.46574074074074073],[1],[0],[0],[2.6204281999962404],['target'],3,001,2024-10-10_12h34.18.398,Visual search task,2024.1.5,None,2024-10-10 12h34.25.735910 +0530,
77,0,77,0,168.70307849999517,,168.68725489999633,5,168.70307849999517,168.70307849999517,0.009880099998554215,170.36820779999834,[-0.21851851851851853],[-0.2388888888888889],[1],[0],[0],[1.6703757000068435],['target'],3,001,2024-10-10_12h34.18.398,Visual search task,2024.1.5,None,2024-10-10 12h34.25.735910 +0530,
78,0,78,0,170.38594359999115,,170.37036369999987,5,170.38594359999115,170.38594359999115,0.009607700005290098,172.7336054000043,[-0.42777777777777776],[0.4638888888888889],[1],[0],[0],[2.3537385999952676],['target'],3,001,2024-10-10_12h34.18.398,Visual search task,2024.1.5,None,2024-10-10 12h34.25.735910 +0530,
79,0,79,0,172.7504806999932,,172.7357411999983,5,172.7504806999932,172.7504806999932,0.00947049999376759,175.43405039999925,[0.32407407407407407],[0.013888888888888888],[1],[0],[0],[2.688040099994396],['target'],3,001,2024-10-10_12h34.18.398,Visual search task,2024.1.5,None,2024-10-10 12h34.25.735910 +0530,
80,0,80,0,175.46468180000375,,175.43620270000247,10,175.46468180000375,175.46468180000375,0.020167900001979433,180.71690079999098,[0.25925925925925924],[0.007407407407407408],[1],[0],[0],[5.259642799996072],['target'],3,001,2024-10-10_12h34.18.398,Visual search task,2024.1.5,None,2024-10-10 12h34.25.735910 +0530,
81,0,81,0,180.7350998000038,,180.71927980000328,5,180.7350998000038,180.7350998000038,0.009667999998782761,182.4501925999939,[-0.3435185185185185],[0.16111111111111112],[1],[0],[0],[1.7206281999970088],['target'],3,001,2024-10-10_12h34.18.398,Visual search task,2024.1.5,None,2024-10-10 12h34.25.735910 +0530,
82,0,82,0,182.4799512000027,,182.45238039999094,10,182.4799512000027,182.4799512000027,0.019732699991436675,186.41503699999885,[0.16018518518518518],[-0.46111111111111114],[1],[0],[0],[3.943107900005998],['target'],3,001,2024-10-10_12h34.18.398,Visual search task,2024.1.5,None,2024-10-10 12h34.25.735910 +0530,
83,0,83,0,186.43211999999767,,186.41725009999936,5,186.43211999999767,186.43211999999767,0.009857400000328198,188.98243530000036,[0.007407407407407408],[-0.09814814814814815],[1],[0],[0],[2.5554215000011027],['target'],3,001,2024-10-10_12h34.18.398,Visual search task,2024.1.5,None,2024-10-10 12h34.25.735910 +0530,
84,0,84,0,189.00025579999783,,188.98459269999876,5,189.00025579999783,189.00025579999783,0.009773099998710677,190.83129849999386,[-0.1037037037037037],[-0.25092592592592594],[1],[0],[0],[1.8369343000085792],['target'],3,001,2024-10-10_12h34.18.398,Visual search task,2024.1.5,None,2024-10-10 12h34.25.735910 +0530,
85,0,85,0,190.84845479999785,,190.8334743000014,5,190.84845479999785,190.84845479999785,0.009581500009517185,192.84849239999312,[-0.28888888888888886],[0.4046296296296296],[1],[0],[0],[2.0047674999950686],['target'],3,001,2024-10-10_12h34.18.398,Visual search task,2024.1.5,None,2024-10-10 12h34.25.735910 +0530,
86,0,86,0,192.8666901999968,,192.8506461999932,5,192.8666901999968,192.8666901999968,0.00956590000714641,194.11521709999943,[-0.2972222222222222],[0.1824074074074074],[1],[0],[0],[1.254724599988549],['target'],3,001,2024-10-10_12h34.18.398,Visual search task,2024.1.5,None,2024-10-10 12h34.25.735910 +0530,
87,0,87,0,194.1456373999972,,194.11738169999444,10,194.1456373999972,194.1456373999972,0.019474600005196407,196.5480452000047,[0.2796296296296296],[-0.225],[1],[0],[0],[2.4105373000056716],['target'],3,001,2024-10-10_12h34.18.398,Visual search task,2024.1.5,None,2024-10-10 12h34.25.735910 +0530,
88,0,88,0,196.56595829999424,,196.55023949999304,5,196.56595829999424,196.56595829999424,0.009606999999959953,198.61461010000494,[-0.4444444444444444],[0.3611111111111111],[1],[0],[0],[2.054151499993168],['target'],3,001,2024-10-10_12h34.18.398,Visual search task,2024.1.5,None,2024-10-10 12h34.25.735910 +0530,
89,0,89,0,198.63257829999202,,198.61678719999327,5,198.63257829999202,198.63257829999202,0.00998299999628216,200.29772760000196,[0.012962962962962963],[0.41759259259259257],[1],[0],[0],[1.670469000004232],['target'],3,001,2024-10-10_12h34.18.398,Visual search task,2024.1.5,None,2024-10-10 12h34.25.735910 +0530,
90,0,90,0,200.32772050000494,,200.29988720000256,10,200.32772050000494,200.32772050000494,0.019620799997937866,201.88082920000306,[-0.2064814814814815],[0.053703703703703705],[1],[0],[0],[1.560569300010684],['target'],3,001,2024-10-10_12h34.18.398,Visual search task,2024.1.5,None,2024-10-10 12h34.25.735910 +0530,
91,0,91,0,201.9102772000042,,201.8829931999935,10,201.9102772000042,201.9102772000042,0.020215700002154335,204.74734639999224,[-0.3287037037037037],[-0.4064814814814815],[1],[0],[0],[2.8433283000049414],['target'],3,001,2024-10-10_12h34.18.398,Visual search task,2024.1.5,None,2024-10-10 12h34.25.735910 +0530,
92,0,92,0,204.76451110000198,,204.74956029999885,5,204.76451110000198,204.76451110000198,0.009505099995294586,206.2637340999936,[0.2851851851851852],[0.42685185185185187],[1],[0],[0],[1.5041638999973657],['target'],3,001,2024-10-10_12h34.18.398,Visual search task,2024.1.5,None,2024-10-10 12h34.25.735910 +0530,
93,0,93,0,206.28172469999117,,206.26596540000173,5,206.28172469999117,206.28172469999117,0.009649300001910888,209.81319339999754,[0.4009259259259259],[0.45185185185185184],[1],[0],[0],[3.536806699994486],['target'],3,001,2024-10-10_12h34.18.398,Visual search task,2024.1.5,None,2024-10-10 12h34.25.735910 +0530,
94,0,94,0,209.8319751999952,,209.81535079999594,5,209.8319751999952,209.8319751999952,0.009947400001692586,212.51272450000397,[0.4212962962962963],[-0.4601851851851852],[1],[0],[0],[2.6867786000075284],['target'],3,001,2024-10-10_12h34.18.398,Visual search task,2024.1.5,None,2024-10-10 12h34.25.735910 +0530,
95,0,95,0,212.54340969999612,,212.5148870999983,10,212.54340969999612,212.54340969999612,0.020053600004757755,213.91260009999678,[0.05648148148148148],[0.29907407407407405],[1],[0],[0],[1.3773675999982515],['target'],3,001,2024-10-10_12h34.18.398,Visual search task,2024.1.5,None,2024-10-10 12h34.25.735910 +0530,
96,0,96,0,213.94214260000444,,213.91476899999543,10,213.94214260000444,213.94214260000444,0.019900800005416386,216.6956019999925,[-0.062037037037037036],[-0.21481481481481482],[1],[0],[0],[2.7602570000017295],['target'],3,001,2024-10-10_12h34.18.398,Visual search task,2024.1.5,None,2024-10-10 12h34.25.735910 +0530,
97,0,97,0,216.7141460999992,,216.69784029999573,5,216.7141460999992,216.7141460999992,0.01043799999752082,218.64535449999676,[-0.09444444444444444],[0.09537037037037037],[1],[0],[0],[1.9371155999979237],['target'],3,001,2024-10-10_12h34.18.398,Visual search task,2024.1.5,None,2024-10-10 12h34.25.735910 +0530,
98,0,98,0,218.66365210000367,,218.64750910000294,5,218.66365210000367,218.66365210000367,0.010004899988416582,221.41148619999876,"[0.3138888888888889, 0.30092592592592593]","[-0.03333333333333333, -0.03981481481481482]","[1, 1]","[0, 0]","[0, 0]","[1.8205357000115328, 2.7533849000028567]",['target'],3,001,2024-10-10_12h34.18.398,Visual search task,2024.1.5,None,2024-10-10 12h34.25.735910 +0530,
99,0,99,0,221.42935489999945,,221.41366059999564,5,221.42935489999945,221.42935489999945,0.009775500002433546,223.44468620000407,[-0.43148148148148147],[-0.3527777777777778],[1],[0],[0],[2.0205975999997463],['target'],3,001,2024-10-10_12h34.18.398,Visual search task,2024.1.5,None,2024-10-10 12h34.25.735910 +0530,
100,0,100,0,223.46296649999567,,223.44697330000054,5,223.46296649999567,223.46296649999567,0.00988889999280218,225.37763319999794,[-0.40185185185185185],[-0.2824074074074074],[1],[0],[0],[1.9208195000101114],['target'],3,001,2024-10-10_12h34.18.398,Visual search task,2024.1.5,None,2024-10-10 12h34.25.735910 +0530,
101,0,101,0,225.3946533999988,,225.37978950000252,5,225.3946533999988,225.3946533999988,0.009832799987634644,226.94345249999606,[-0.3611111111111111],[0.2601851851851852],[1],[0],[0],[1.5539109999954235],['target'],3,001,2024-10-10_12h34.18.398,Visual search task,2024.1.5,None,2024-10-10 12h34.25.735910 +0530,
102,0,102,0,226.96183030000248,,226.94562040000164,5,226.96183030000248,226.96183030000248,0.009957500005839393,229.1446578000032,[0.25],[0.05925925925925926],[1],[0],[0],[2.1891782999882707],['target'],3,001,2024-10-10_12h34.18.398,Visual search task,2024.1.5,None,2024-10-10 12h34.25.735910 +0530,
103,0,103,0,229.1619750999962,,229.1468448999949,5,229.1619750999962,229.1619750999962,0.009707899997010827,231.01046279999719,[-0.43148148148148147],[0.013888888888888888],[1],[0],[0],[1.8531854000029853],['target'],3,001,2024-10-10_12h34.18.398,Visual search task,2024.1.5,None,2024-10-10 12h34.25.735910 +0530,
104,0,104,0,231.0276875999989,,231.01260159999947,5,231.0276875999989,231.0276875999989,0.009759699998539872,233.1601590999926,[0.39166666666666666],[0.007407407407407408],[1],[0],[0],[2.137126100002206],['target'],3,001,2024-10-10_12h34.18.398,Visual search task,2024.1.5,None,2024-10-10 12h34.25.735910 +0530,
105,0,105,0,233.1786565999937,,233.1623319999926,5,233.1786565999937,233.1786565999937,0.01026830000046175,234.82664529999602,[-0.18055555555555555],[-0.15648148148148147],[1],[0],[0],[1.6535322999989148],['target'],3,001,2024-10-10_12h34.18.398,Visual search task,2024.1.5,None,2024-10-10 12h34.25.735910 +0530,
106,0,106,0,234.85672019999765,,234.82878389999678,10,234.85672019999765,234.85672019999765,0.019576700011384673,237.92645309999352,[0.33796296296296297],[-0.487962962962963],[1],[0],[0],[3.0771693999995477],['target'],3,001,2024-10-10_12h34.18.398,Visual search task,2024.1.5,None,2024-10-10 12h34.25.735910 +0530,
107,0,107,0,237.95501779999177,,237.9286579000036,10,237.95501779999177,237.95501779999177,0.019553299993276596,240.57593550000456,[0.49166666666666664],[-0.46574074074074073],[1],[0],[0],[2.6271204999939073],['target'],3,001,2024-10-10_12h34.18.398,Visual search task,2024.1.5,None,2024-10-10 12h34.25.735910 +0530,
108,0,108,0,240.60524049999367,,240.578116699995,10,240.60524049999367,240.60524049999367,0.020253099995898083,242.39249440000276,[-0.008333333333333333],[0.4046296296296296],[1],[0],[0],[1.793289300010656],['target'],3,001,2024-10-10_12h34.18.398,Visual search task,2024.1.5,None,2024-10-10 12h34.25.735910 +0530,
109,0,109,0,242.42143309999665,,242.39470520000032,10,242.42143309999665,242.42143309999665,0.01984959999390412,245.69180570000026,[-0.35],[0.4888888888888889],[1],[0],[0],[3.2771573000063654],['target'],3,001,2024-10-10_12h34.18.398,Visual search task,2024.1.5,None,2024-10-10 12h34.25.735910 +0530,
110,0,110,0,245.71078249999846,,245.6943226000003,5,245.71078249999846,245.71078249999846,0.010259200003929436,247.2249531999987,[-0.16574074074074074],[0.1425925925925926],[1],[0],[0],[1.519851099990774],['target'],3,001,2024-10-10_12h34.18.398,Visual search task,2024.1.5,None,2024-10-10 12h34.25.735910 +0530,
111,0,111,0,247.24256009999954,,247.2271241999988,5,247.24256009999954,247.24256009999954,0.009526099995127879,249.07474929999444,[0.42314814814814816],[-0.1648148148148148],[1],[0],[0],[1.837299399994663],['target'],3,001,2024-10-10_12h34.18.398,Visual search task,2024.1.5,None,2024-10-10 12h34.25.735910 +0530,
112,0,112,0,249.0921406999987,,249.07689329999266,5,249.0921406999987,249.0921406999987,0.009915300004649907,250.92418129999714,[-0.1712962962962963],[0.48333333333333334],[1],[0],[0],[1.8374457000027178],['target'],3,001,2024-10-10_12h34.18.398,Visual search task,2024.1.5,None,2024-10-10 12h34.25.735910 +0530,
113,0,113,0,250.94068820000393,,250.92633339999884,5,250.94068820000393,250.94068820000393,0.009603400001651607,253.10768899999675,[0.42314814814814816],[-0.3648148148148148],[1],[0],[0],[2.1710164999967674],['target'],3,001,2024-10-10_12h34.18.398,Visual search task,2024.1.5,None,2024-10-10 12h34.25.735910 +0530,
114,0,114,0,253.1246919999976,,253.1098459999921,5,253.1246919999976,253.1246919999976,0.009432699996978045,255.35686630000419,[-0.3990740740740741],[-0.35648148148148145],[1],[0],[0],[2.237668699992355],['target'],3,001,2024-10-10_12h34.18.398,Visual search task,2024.1.5,None,2024-10-10 12h34.25.735910 +0530,
115,0,115,0,255.3842752999917,,255.35899769999378,10,255.3842752999917,255.3842752999917,0.018224700004793704,257.59074089999194,[0.4324074074074074],[-0.13518518518518519],[1],[0],[0],[2.212757800007239],['target'],3,001,2024-10-10_12h34.18.398,Visual search task,2024.1.5,None,2024-10-10 12h34.25.735910 +0530,
116,0,116,0,257.61964889999945,,257.5929493000003,10,257.61964889999945,257.61964889999945,0.019829500000923872,259.1735849999968,[0.07314814814814814],[0.4],[1],[0],[0],[1.5608902999956626],['target'],3,001,2024-10-10_12h34.18.398,Visual search task,2024.1.5,None,2024-10-10 12h34.25.735910 +0530,
117,0,117,0,259.19080589999794,,259.17574720000266,5,259.19080589999794,259.19080589999794,0.009492600001976825,261.05675699999847,[-0.06574074074074074],[0.11666666666666667],[1],[0],[0],[1.8708782000030624],['target'],3,001,2024-10-10_12h34.18.398,Visual search task,2024.1.5,None,2024-10-10 12h34.25.735910 +0530,
118,0,118,0,261.0736087999976,,261.0589086999971,5,261.0736087999976,261.0736087999976,0.009438900000532158,262.50665260000096,[-0.23425925925925925],[0.25462962962962965],[1],[0],[0],[1.4375419999996666],['target'],3,001,2024-10-10_12h34.18.398,Visual search task,2024.1.5,None,2024-10-10 12h34.25.735910 +0530,
119,0,119,0,262.53607139999804,,262.5088046000019,10,262.53607139999804,262.53607139999804,0.0201565000024857,264.65608390000125,[0.48333333333333334],[0.36018518518518516],[1],[0],[0],[2.126497699995525],['target'],3,001,2024-10-10_12h34.18.398,Visual search task,2024.1.5,None,2024-10-10 12h34.25.735910 +0530,
120,0,120,0,264.6847229999985,,264.65830480000295,10,264.6847229999985,264.6847229999985,0.01957590000529308,266.6727014999924,[0.4425925925925926],[0.2111111111111111],[1],[0],[0],[1.9948626999976113],['target'],3,001,2024-10-10_12h34.18.398,Visual search task,2024.1.5,None,2024-10-10 12h34.25.735910 +0530,
121,0,121,0,266.6899510999938,,266.6748973999929,5,266.6899510999938,266.6899510999938,0.009701200004201382,268.93814009999915,[0.05740740740740741],[-0.23703703703703705],[1],[0],[0],[2.253646299999673],['target'],3,001,2024-10-10_12h34.18.398,Visual search task,2024.1.5,None,2024-10-10 12h34.25.735910 +0530,
122,0,122,0,268.9664028999978,,268.9403117000038,10,268.9664028999978,268.9664028999978,0.018633200001204386,271.60621979999996,[0.35833333333333334],[0.4203703703703704],[1],[0],[0],[2.647268799992162],['target'],3,001,2024-10-10_12h34.18.398,Visual search task,2024.1.5,None,2024-10-10 12h34.25.735910 +0530,
123,0,123,0,271.6240175999992,,271.60840830000234,5,271.6240175999992,271.6240175999992,0.009822399995755404,273.17083030000504,[0.17592592592592593],[0.3333333333333333],[1],[0],[0],[1.552736300000106],['target'],3,001,2024-10-10_12h34.18.398,Visual search task,2024.1.5,None,2024-10-10 12h34.25.735910 +0530,
124,0,124,0,273.19960490000085,,273.1730150999938,10,273.19960490000085,273.19960490000085,0.018508599998313002,275.0548753000039,[-0.10092592592592593],[0.10555555555555556],[1],[0],[0],[1.862656600002083],['target'],3,001,2024-10-10_12h34.18.398,Visual search task,2024.1.5,None,2024-10-10 12h34.25.735910 +0530,
125,0,125,0,275.0721224000008,,275.057063699991,5,275.0721224000008,275.0721224000008,0.009401200004504062,277.33797959999356,[0.4009259259259259],[-0.28425925925925927],[1],[0],[0],[2.2707586999895284],['target'],3,001,2024-10-10_12h34.18.398,Visual search task,2024.1.5,None,2024-10-10 12h34.25.735910 +0530,
126,0,126,0,277.36782450000464,,277.34014139999636,10,277.36782450000464,277.36782450000464,0.01988379999238532,278.8875248999975,[0.3055555555555556],[-0.12685185185185185],[1],[0],[0],[1.5268840999924578],['target'],3,001,2024-10-10_12h34.18.398,Visual search task,2024.1.5,None,2024-10-10 12h34.25.735910 +0530,
127,0,127,0,278.90613000000303,,278.8897569999972,5,278.90613000000303,278.90613000000303,0.009897600000840612,280.7199397999939,[-0.20462962962962963],[0.1175925925925926],[1],[0],[0],[1.8202642999967793],['target'],3,001,2024-10-10_12h34.18.398,Visual search task,2024.1.5,None,2024-10-10 12h34.25.735910 +0530,
128,0,128,0,280.74982810000074,,280.72209899999143,10,280.74982810000074,280.74982810000074,0.018040000009932555,282.7705808000028,[0.023148148148148147],[-0.15833333333333333],[1],[0],[0],[2.029742399987299],['target'],3,001,2024-10-10_12h34.18.398,Visual search task,2024.1.5,None,2024-10-10 12h34.25.735910 +0530,
129,0,129,0,282.78833080000186,,282.77277239999967,5,282.78833080000186,282.78833080000186,0.009669399994891137,284.88708240000415,[0.39166666666666666],[0.4064814814814815],[1],[0],[0],[2.10418049999862],['target'],3,001,2024-10-10_12h34.18.398,Visual search task,2024.1.5,None,2024-10-10 12h34.25.735910 +0530,
130,0,130,0,284.90430959999503,,284.88922959999763,5,284.90430959999503,284.90430959999503,0.009500000000116415,286.5033403999987,[-0.06944444444444445],[-0.053703703703703705],[1],[0],[0],[1.603933100006543],['target'],3,001,2024-10-10_12h34.18.398,Visual search task,2024.1.5,None,2024-10-10 12h34.25.735910 +0530,
131,0,131,0,286.5213575999951,,286.5055321999971,5,286.5213575999951,286.5213575999951,0.010195600014412776,288.5698473999946,[-0.4212962962962963],[-0.225],[1],[0],[0],[2.0535514000075636],['target'],3,001,2024-10-10_12h34.18.398,Visual search task,2024.1.5,None,2024-10-10 12h34.25.735910 +0530,
132,0,132,0,288.5871638999961,,288.57198150000477,5,288.5871638999961,288.5871638999961,0.010034500010078773,290.6528049000044,[-0.47685185185185186],[-0.3398148148148148],[1],[0],[0],[2.070245700000669],['target'],3,001,2024-10-10_12h34.18.398,Visual search task,2024.1.5,None,2024-10-10 12h34.25.735910 +0530,
133,0,133,0,290.6829519000021,,290.654953499994,10,290.6829519000021,290.6829519000021,0.019644400003016926,293.252788999991,[-0.1814814814814815],[-0.31203703703703706],[1],[0],[0],[2.577396000007866],['target'],3,001,2024-10-10_12h34.18.398,Visual search task,2024.1.5,None,2024-10-10 12h34.25.735910 +0530,
134,0,134,0,293.2822051999974,,293.254978500001,10,293.2822051999974,293.2822051999974,0.01956479999353178,295.8019764999917,[-0.4083333333333333],[0.4537037037037037],[1],[0],[0],[2.527498999988893],['target'],3,001,2024-10-10_12h34.18.398,Visual search task,2024.1.5,None,2024-10-10 12h34.25.735910 +0530,
135,0,135,0,295.818617900004,,295.804143500005,5,295.818617900004,295.818617900004,0.009604599996237084,297.5014456999925,[-0.2861111111111111],[0.07314814814814814],[1],[0],[0],[1.6876212999923155],['target'],3,001,2024-10-10_12h34.18.398,Visual search task,2024.1.5,None,2024-10-10 12h34.25.735910 +0530,
136,0,136,0,297.53250000000116,,297.50415949999297,10,297.53250000000116,297.53250000000116,0.020238299999618903,299.2184830000042,[-0.03611111111111111],[0.07592592592592592],[1],[0],[0],[1.6940647000010358],['target'],3,001,2024-10-10_12h34.18.398,Visual search task,2024.1.5,None,2024-10-10 12h34.25.735910 +0530,
137,0,137,0,299.2485499000031,,299.22068329999456,10,299.2485499000031,299.2485499000031,0.019681999998283572,301.33487140000216,[-0.05092592592592592],[0.08333333333333333],[1],[0],[0],[2.0938435999996727],['target'],3,001,2024-10-10_12h34.18.398,Visual search task,2024.1.5,None,2024-10-10 12h34.25.735910 +0530,
138,0,138,0,301.3528837000049,,301.33705909999844,5,301.3528837000049,301.3528837000049,0.009512100004940294,305.1345139000041,[0.08425925925925926],[-0.2111111111111111],[1],[0],[0],[3.7876798000070266],['target'],3,001,2024-10-10_12h34.18.398,Visual search task,2024.1.5,None,2024-10-10 12h34.25.735910 +0530,
139,0,139,0,305.1516833999922,,305.1366521000018,5,305.1516833999922,305.1516833999922,0.009595099996658973,307.08421180000005,[-0.017592592592592594],[0.35555555555555557],[1],[0],[0],[1.9372140000050422],['target'],3,001,2024-10-10_12h34.18.398,Visual search task,2024.1.5,None,2024-10-10 12h34.25.735910 +0530,
140,0,140,0,307.1132418000052,,307.0863706999953,10,307.1132418000052,307.1132418000052,0.019253899998147972,309.5000998000032,[-0.09537037037037037],[-0.2935185185185185],[1],[0],[0],[2.3944956999912392],['target'],3,001,2024-10-10_12h34.18.398,Visual search task,2024.1.5,None,2024-10-10 12h34.25.735910 +0530,
141,0,141,0,309.51800500000536,,309.50227480000467,5,309.51800500000536,309.51800500000536,0.00966820000030566,311.3674242999987,[-0.19444444444444445],[0.36944444444444446],[1],[0],[0],[1.8553108999913093],['target'],3,001,2024-10-10_12h34.18.398,Visual search task,2024.1.5,None,2024-10-10 12h34.25.735910 +0530,
142,0,142,0,311.3848047999927,,311.3695876999991,5,311.3848047999927,311.3848047999927,0.009582700004102662,313.9159587000031,[-0.012037037037037037],[-0.46111111111111114],[1],[0],[0],[2.536873099990771],['target'],3,001,2024-10-10_12h34.18.398,Visual search task,2024.1.5,None,2024-10-10 12h34.25.735910 +0530,
143,0,143,0,313.94573279999895,,313.91818649999914,10,313.94573279999895,313.94573279999895,0.018163900007493794,319.33347509999294,[-0.4462962962962963],[0.25462962962962965],[1],[0],[0],[5.396275899998727],['target'],3,001,2024-10-10_12h34.18.398,Visual search task,2024.1.5,None,2024-10-10 12h34.25.735910 +0530,
144,0,144,0,319.3962107999978,,319.33826019999105,10,319.3962107999978,319.3962107999978,0.04698119999375194,323.0151741000009,[0.3472222222222222],[0.3037037037037037],[1],[0],[0],[3.63059620000422],['target'],3,001,2024-10-10_12h34.18.398,Visual search task,2024.1.5,None,2024-10-10 12h34.25.735910 +0530,
145,0,145,0,323.03879269999743,,323.0187001000013,5,323.03879269999743,323.03879269999743,0.014329900004668161,324.7651876000018,[0.09166666666666666],[-0.09537037037037037],[1],[0],[0],[1.7314909999986412],['target'],3,001,2024-10-10_12h34.18.398,Visual search task,2024.1.5,None,2024-10-10 12h34.25.735910 +0530,
146,0,146,0,324.7943978999974,,324.76735189999454,10,324.7943978999974,324.7943978999974,0.01995570000144653,326.76508149999427,[-0.49166666666666664],[0.47129629629629627],[1],[0],[0],[1.9770341999974335],['target'],3,001,2024-10-10_12h34.18.398,Visual search task,2024.1.5,None,2024-10-10 12h34.25.735910 +0530,
147,0,147,0,326.7962584999914,,326.7672886999935,10,326.7962584999914,326.7962584999914,0.019777900000917725,328.31488599999284,[-0.008333333333333333],[0.13703703703703704],[1],[0],[0],[1.5270968999975594],['target'],3,001,2024-10-10_12h34.18.398,Visual search task,2024.1.5,None,2024-10-10 12h34.25.735910 +0530,
148,0,148,0,328.3319816000003,,328.3170756000036,5,328.3319816000003,328.3319816000003,0.009526400011964142,329.94769369999995,[0.10555555555555556],[-0.32037037037037036],[1],[0],[0],[1.621209100005217],['target'],3,001,2024-10-10_12h34.18.398,Visual search task,2024.1.5,None,2024-10-10 12h34.25.735910 +0530,
149,0,149,0,329.9651450999954,,329.95010139999795,5,329.9651450999954,329.9651450999954,0.00973330000124406,331.28109750000294,[0.013888888888888888],[-0.12314814814814815],[1],[0],[0],[1.3207098999992013],['target'],3,001,2024-10-10_12h34.18.398,Visual search task,2024.1.5,None,2024-10-10 12h34.25.735910 +0530,
150,0,150,0,331.3117787999945,,331.2832735999982,10,331.3117787999945,331.3117787999945,0.019616000005044043,334.679498700003,[0.35],[-0.4675925925925926],[1],[0],[0],[3.3767138000112027],['target'],3,001,2024-10-10_12h34.18.398,Visual search task,2024.1.5,None,2024-10-10 12h34.25.735910 +0530,
151,0,151,0,334.6970355999947,,334.6818185000011,5,334.6970355999947,334.6970355999947,0.009889100008876994,336.68056159999105,[-0.49074074074074076],[-0.3472222222222222],[1],[0],[0],[1.9881819000001997],['target'],3,001,2024-10-10_12h34.18.398,Visual search task,2024.1.5,None,2024-10-10 12h34.25.735910 +0530,
152,0,152,0,336.7105504999927,,336.682747400002,10,336.7105504999927,336.7105504999927,0.01973280000675004,338.4801351999922,[0.20833333333333334],[0.009259259259259259],[1],[0],[0],[1.777025399991544],['target'],3,001,2024-10-10_12h34.18.398,Visual search task,2024.1.5,None,2024-10-10 12h34.25.735910 +0530,
153,0,153,0,338.49890979999327,,338.4823552000016,5,338.49890979999327,338.49890979999327,0.009964999990188517,340.0134412000043,[0.15185185185185185],[-0.362962962962963],[1],[0],[0],[1.5212360000004992],['target'],3,001,2024-10-10_12h34.18.398,Visual search task,2024.1.5,None,2024-10-10 12h34.25.735910 +0530,
154,0,154,0,340.03143960000307,,340.0155892000039,5,340.03143960000307,340.03143960000307,0.010223300007055514,341.4630691999919,[0.02962962962962963],[0.37777777777777777],[1],[0],[0],[1.436591599995154],['target'],3,001,2024-10-10_12h34.18.398,Visual search task,2024.1.5,None,2024-10-10 12h34.25.735910 +0530,
155,0,155,0,341.49362290000136,,341.4652441999933,10,341.49362290000136,341.49362290000136,0.01957129999937024,343.1294268999918,[0.11296296296296296],[-0.25277777777777777],[1],[0],[0],[1.6441350000095554],['target'],3,001,2024-10-10_12h34.18.398,Visual search task,2024.1.5,None,2024-10-10 12h34.25.735910 +0530,
156,0,156,0,343.1471023999911,,343.131589800003,5,343.1471023999911,343.1471023999911,0.009592299989890307,344.8460434000008,[0.11944444444444445],[-0.25833333333333336],[1],[0],[0],[1.7043687000114005],['target'],3,001,2024-10-10_12h34.18.398,Visual search task,2024.1.5,None,2024-10-10 12h34.25.735910 +0530,
157,0,157,0,344.8639770000009,,344.84818849999283,5,344.8639770000009,344.8639770000009,0.010382699998444878,346.12910370000463,[0.14537037037037037],[-0.28055555555555556],[1],[0],[0],[1.269997900002636],['target'],3,001,2024-10-10_12h34.18.398,Visual search task,2024.1.5,None,2024-10-10 12h34.25.735910 +0530,
158,0,158,0,346.1468720999983,,346.1312673999928,5,346.1468720999983,346.1468720999983,0.009506999995210208,347.81248049999704,[0.33055555555555555],[0.1935185185185185],[1],[0],[0],[1.6708259000006365],['target'],3,001,2024-10-10_12h34.18.398,Visual search task,2024.1.5,None,2024-10-10 12h34.25.735910 +0530,
159,0,159,0,347.8424648999935,,347.8146388000023,10,347.8424648999935,347.8424648999935,0.0199436999973841,349.56138230000215,[-0.26851851851851855],[-0.19722222222222222],[1],[0],[0],[1.7268422999914037],['target'],3,001,2024-10-10_12h34.18.398,Visual search task,2024.1.5,None,2024-10-10 12h34.25.735910 +0530,
160,0,160,0,349.59077579999575,,349.56398340000305,10,349.59077579999575,349.59077579999575,0.0197314999968512,351.07866020000074,[0.12129629629629629],[-0.3111111111111111],[1],[0],[0],[1.494637399999192],['target'],3,001,2024-10-10_12h34.18.398,Visual search task,2024.1.5,None,2024-10-10 12h34.25.735910 +0530,
161,0,161,0,351.11188470000343,,351.0808517999976,10,351.11188470000343,351.11188470000343,0.02064329999848269,353.7618927000003,[-0.3574074074074074],[-0.40555555555555556],[1],[0],[0],[2.6605455999961123],['target'],3,001,2024-10-10_12h34.18.398,Visual search task,2024.1.5,None,2024-10-10 12h34.25.735910 +0530,
162,0,162,0,353.79054899999755,,353.7640701999917,10,353.79054899999755,353.79054899999755,0.019569500000216067,355.7605091000005,[0.24722222222222223],[-0.375],[1],[0],[0],[1.9769418000068981],['target'],3,001,2024-10-10_12h34.18.398,Visual search task,2024.1.5,None,2024-10-10 12h34.25.735910 +0530,
163,0,163,0,355.7898631999997,,355.7627164000005,10,355.7898631999997,355.7898631999997,0.018255800008773804,358.2444822999969,[0.45740740740740743],[0.0712962962962963],[1],[0],[0],[2.4630469999974594],['target'],3,001,2024-10-10_12h34.18.398,Visual search task,2024.1.5,None,2024-10-10 12h34.25.735910 +0530,
164,0,164,0,358.2741032000049,,358.24662619999435,10,358.2741032000049,358.2741032000049,0.01930329999595415,360.2936181999976,[-0.08518518518518518],[-0.2361111111111111],[1],[0],[0],[2.027735499999835],['target'],3,001,2024-10-10_12h34.18.398,Visual search task,2024.1.5,None,2024-10-10 12h34.25.735910 +0530,
165,0,165,0,360.31044079999265,,360.29583139999886,5,360.31044079999265,360.31044079999265,0.009443999995710328,361.42729880000115,[-0.08981481481481482],[-0.12129629629629629],[1],[0],[0],[1.121921800004202],['target'],3,001,2024-10-10_12h34.18.398,Visual search task,2024.1.5,None,2024-10-10 12h34.25.735910 +0530,
166,0,166,0,361.4452367999911,,361.42940799999633,5,361.4452367999911,361.4452367999911,0.009724699993967079,363.5106005999987,[-0.41944444444444445],[0.37222222222222223],[1],[0],[0],[2.0708050999965053],['target'],3,001,2024-10-10_12h34.18.398,Visual search task,2024.1.5,None,2024-10-10 12h34.25.735910 +0530,
167,0,167,0,363.5281050999911,,363.5127657999983,5,363.5281050999911,363.5281050999911,0.009515300000202842,365.3434714000032,[0.07962962962962963],[0.09537037037037037],[1],[0],[0],[1.8203831999999238],['target'],3,001,2024-10-10_12h34.18.398,Visual search task,2024.1.5,None,2024-10-10 12h34.25.735910 +0530,
168,0,168,0,365.3732775999961,,365.34565909999947,10,365.3732775999961,365.3732775999961,0.019631699993624352,369.6261249999952,[-0.3148148148148148],[0.45092592592592595],[1],[0],[0],[4.26003610000771],['target'],3,001,2024-10-10_12h34.18.398,Visual search task,2024.1.5,None,2024-10-10 12h34.25.735910 +0530,
169,0,169,0,369.64470489999803,,369.6283776000055,5,369.64470489999803,369.64470489999803,0.010006199998315424,372.32504419999896,[-0.4740740740740741],[-0.2814814814814815],[1],[0],[0],[2.686772999993991],['target'],3,001,2024-10-10_12h34.18.398,Visual search task,2024.1.5,None,2024-10-10 12h34.25.735910 +0530,
170,0,170,0,372.34191249999276,,372.3271961999999,5,372.34191249999276,372.34191249999276,0.009499500010861084,374.20889739999257,[0.09907407407407408],[0.4759259259259259],[1],[0],[0],[1.8716125000064494],['target'],3,001,2024-10-10_12h34.18.398,Visual search task,2024.1.5,None,2024-10-10 12h34.25.735910 +0530,
171,0,171,0,374.2298579000053,,374.21140240000386,5,374.2298579000053,374.2298579000053,0.012297699999180622,375.6420538999955,[-0.3685185185185185],[0.24722222222222223],[1],[0],[0],[1.417671999995946],['target'],3,001,2024-10-10_12h34.18.398,Visual search task,2024.1.5,None,2024-10-10 12h34.25.735910 +0530,
172,0,172,0,375.6635252999986,,375.6446428000054,5,375.6635252999986,375.6635252999986,0.012084599991794676,377.8087158999988,[0.026851851851851852],[0.037037037037037035],[1],[0],[0],[2.15209090001008],['target'],3,001,2024-10-10_12h34.18.398,Visual search task,2024.1.5,None,2024-10-10 12h34.25.735910 +0530,
173,0,173,0,377.84207129999413,,377.81092160000117,10,377.84207129999413,377.84207129999413,0.02100829999835696,379.45837120000215,[-0.030555555555555555],[-0.2898148148148148],[1],[0],[0],[1.625733399996534],['target'],3,001,2024-10-10_12h34.18.398,Visual search task,2024.1.5,None,2024-10-10 12h34.25.735910 +0530,
174,0,174,0,379.4759516999911,,379.4605378999986,5,379.4759516999911,379.4759516999911,0.009844100000918843,381.0747102000023,[0.06018518518518518],[0.36018518518518516],[1],[0],[0],[1.6039061000046786],['target'],3,001,2024-10-10_12h34.18.398,Visual search task,2024.1.5,None,2024-10-10 12h34.25.735910 +0530,
175,0,175,0,381.1042990999995,,381.07684470000095,10,381.1042990999995,381.1042990999995,0.019409800006542355,382.5578477999952,[-0.08055555555555556],[0.37407407407407406],[1],[0],[0],[1.4608889000082854],['target'],3,001,2024-10-10_12h34.18.398,Visual search task,2024.1.5,None,2024-10-10 12h34.25.735910 +0530,
176,0,176,0,382.57587509999576,,382.5600313000032,5,382.57587509999576,382.57587509999576,0.009515199999441393,384.60704249999253,[-0.4703703703703704],[-0.1638888888888889],[1],[0],[0],[2.0374950999976136],['target'],3,001,2024-10-10_12h34.18.398,Visual search task,2024.1.5,None,2024-10-10 12h34.25.735910 +0530,
177,0,177,0,384.6253236000048,,384.60946839999815,5,384.6253236000048,384.6253236000048,0.009598299991921522,386.540734299997,[0.3685185185185185],[-0.10185185185185185],[1],[0],[0],[1.9208898000069894],['target'],3,001,2024-10-10_12h34.18.398,Visual search task,2024.1.5,None,2024-10-10 12h34.25.735910 +0530,
178,0,178,0,386.570249700002,,386.5429082000046,10,386.570249700002,386.570249700002,0.019729599996935576,388.07377709999855,[0.23148148148148148],[0.13796296296296295],[1],[0],[0],[1.5110581000044476],['target'],3,001,2024-10-10_12h34.18.398,Visual search task,2024.1.5,None,2024-10-10 12h34.25.735910 +0530,
179,0,179,0,388.10395089999656,,388.07596329999797,10,388.10395089999656,388.10395089999656,0.01964560001215432,389.5405494000006,[0.41388888888888886],[0.2222222222222222],[1],[0],[0],[1.4444569000042975],['target'],3,001,2024-10-10_12h34.18.398,Visual search task,2024.1.5,None,2024-10-10 12h34.25.735910 +0530,
180,0,180,0,389.5718116999924,,389.54276719999325,10,389.5718116999924,389.5718116999924,0.019815500010736287,390.92319499999576,[0.4601851851851852],[0.10277777777777777],[1],[0],[0],[1.3603608999983408],['target'],3,001,2024-10-10_12h34.18.398,Visual search task,2024.1.5,None,2024-10-10 12h34.25.735910 +0530,
181,0,181,0,390.9534580000036,,390.925645299998,10,390.9534580000036,390.9534580000036,0.019493499989039265,392.10657920000085,[0.4675925925925926],[0.12037037037037036],[1],[0],[0],[1.1611975999985589],['target'],3,001,2024-10-10_12h34.18.398,Visual search task,2024.1.5,None,2024-10-10 12h34.25.735910 +0530,
182,0,182,0,392.1375037999969,,392.10906590000377,10,392.1375037999969,392.1375037999969,0.01947939999809023,394.0233676999924,[0.1824074074074074],[0.31203703703703706],[1],[0],[0],[1.8942928000033135],['target'],3,001,2024-10-10_12h34.18.398,Visual search task,2024.1.5,None,2024-10-10 12h34.25.735910 +0530,
183,0,183,0,394.0523455999937,,394.02555649999704,10,394.0523455999937,394.0523455999937,0.01955650000309106,397.00626100000227,[-0.3472222222222222],[-0.13240740740740742],[1],[0],[0],[2.9607888000027742],['target'],3,001,2024-10-10_12h34.18.398,Visual search task,2024.1.5,None,2024-10-10 12h34.25.735910 +0530,
184,0,184,0,397.0396649000031,,397.0084479999932,10,397.0396649000031,397.0396649000031,0.020265099999960512,399.28833539999323,[0.3768518518518518],[0.42962962962962964],[1],[0],[0],[2.25970550000784],['target'],3,001,2024-10-10_12h34.18.398,Visual search task,2024.1.5,None,2024-10-10 12h34.25.735910 +0530,
185,0,185,0,399.30552490000264,,399.29050540000026,5,399.30552490000264,399.30552490000264,0.009558999998262152,400.9047782999987,[-0.1638888888888889],[0.34814814814814815],[1],[0],[0],[1.6047851000039373],['target'],3,001,2024-10-10_12h34.18.398,Visual search task,2024.1.5,None,2024-10-10 12h34.25.735910 +0530,
186,0,186,0,400.9341459999996,,400.90691039999365,10,400.9341459999996,400.9341459999996,0.01852550001058262,403.1884729000012,[0.2574074074074074],[0.225],[1],[0],[0],[2.262355300001218],['target'],3,001,2024-10-10_12h34.18.398,Visual search task,2024.1.5,None,2024-10-10 12h34.25.735910 +0530,
187,0,187,0,403.20583700000134,,403.19067619999987,5,403.20583700000134,403.20583700000134,0.009546600005705841,404.7385837000038,[0.4564814814814815],[0.31296296296296294],[1],[0],[0],[1.5383950999967055],['target'],3,001,2024-10-10_12h34.18.398,Visual search task,2024.1.5,None,2024-10-10 12h34.25.735910 +0530,
188,0,188,0,404.7718690000038,,404.7407486000011,10,404.7718690000038,404.7718690000038,0.020459099992876872,406.57148569999845,[0.362962962962963],[-0.07592592592592592],[1],[0],[0],[1.8097913999954471],['target'],3,001,2024-10-10_12h34.18.398,Visual search task,2024.1.5,None,2024-10-10 12h34.25.735910 +0530,
189,0,189,0,406.60265800000343,,406.5736501999927,10,406.60265800000343,406.60265800000343,0.019400000004679896,409.2212609999988,[0.24074074074074073],[-0.39814814814814814],[1],[0],[0],[2.6279187000036472],['target'],3,001,2024-10-10_12h34.18.398,Visual search task,2024.1.5,None,2024-10-10 12h34.25.735910 +0530,
190,0,190,0,409.2391939999943,,409.22348060000513,5,409.2391939999943,409.2391939999943,0.009647300001233816,410.9044531999971,[-0.37037037037037035],[-0.32592592592592595],[1],[0],[0],[1.6704716000094777],['target'],3,001,2024-10-10_12h34.18.398,Visual search task,2024.1.5,None,2024-10-10 12h34.25.735910 +0530,
191,0,191,0,410.9224232999986,,410.9066036000004,5,410.9224232999986,410.9224232999986,0.009636000002501532,412.56991570000537,[0.025],[-0.3037037037037037],[1],[0],[0],[1.6536846999952104],['target'],3,001,2024-10-10_12h34.18.398,Visual search task,2024.1.5,None,2024-10-10 12h34.25.735910 +0530,
192,0,192,0,412.5879545999924,,412.57241890000296,5,412.5879545999924,412.5879545999924,0.00976010000158567,414.0876242999948,[-0.1787037037037037],[0.019444444444444445],[1],[0],[0],[1.5053297999984352],['target'],3,001,2024-10-10_12h34.18.398,Visual search task,2024.1.5,None,2024-10-10 12h34.25.735910 +0530,
193,0,193,0,414.1052198999969,,414.0897660000046,5,414.1052198999969,414.1052198999969,0.00952520000282675,415.4202581999998,[-0.1388888888888889],[-0.27870370370370373],[1],[0],[0],[1.3205331999924965],['target'],3,001,2024-10-10_12h34.18.398,Visual search task,2024.1.5,None,2024-10-10 12h34.25.735910 +0530,
194,0,194,0,415.44968849999714,,415.42239350000455,10,415.44968849999714,415.44968849999714,0.020240300000295974,417.46964229999867,[0.1574074074074074],[-0.43425925925925923],[1],[0],[0],[2.0270204999978887],['target'],3,001,2024-10-10_12h34.18.398,Visual search task,2024.1.5,None,2024-10-10 12h34.25.735910 +0530,
195,0,195,0,417.49839449999854,,417.4718339999963,10,417.49839449999854,417.49839449999854,0.018754999997327104,419.30354989999614,[0.12222222222222222],[-0.44814814814814813],[1],[0],[0],[1.8122126999951433],['target'],3,001,2024-10-10_12h34.18.398,Visual search task,2024.1.5,None,2024-10-10 12h34.25.735910 +0530,
196,0,196,0,419.3211011999956,,419.30574440000055,5,419.3211011999956,419.3211011999956,0.009927199993398972,421.1696322999924,[-0.44166666666666665],[0.03333333333333333],[1],[0],[0],[1.8532528999930946],['target'],3,001,2024-10-10_12h34.18.398,Visual search task,2024.1.5,None,2024-10-10 12h34.25.735910 +0530,
197,0,197,0,421.2001567999978,,421.17182010000397,10,421.2001567999978,421.2001567999978,0.019884900000761263,426.21806389999983,"[0.4648148148148148, 0.337037037037037]","[0.4777777777777778, -0.38796296296296295]","[1, 1]","[0, 0]","[0, 0]","[2.876973699996597, 5.026456499996129]",['target'],3,001,2024-10-10_12h34.18.398,Visual search task,2024.1.5,None,2024-10-10 12h34.25.735910 +0530,
198,0,198,0,426.2354937999917,,426.22024229999806,5,426.2354937999917,426.2354937999917,0.009748600001330487,428.6520015999995,[-0.21574074074074073],[-0.225],[1],[0],[0],[2.421335499995621],['target'],3,001,2024-10-10_12h34.18.398,Visual search task,2024.1.5,None,2024-10-10 12h34.25.735910 +0530,
199,0,199,0,428.669951399992,,428.65418019999925,5,428.669951399992,428.669951399992,0.009482599998591468,431.6516144999914,[-0.32037037037037036],[0.46574074074074073],[1],[0],[0],[2.987447499996051],['target'],3,001,2024-10-10_12h34.18.398,Visual search task,2024.1.5,None,2024-10-10 12h34.25.735910 +0530,
