trials.thisRepN,trials.thisTrialN,trials.thisN,trials.thisIndex,thisRow.t,notes,trial.started,num_distr,Fixation.started,target.started,mouse.started,trial.stopped,mouse.x,mouse.y,mouse.leftButton,mouse.midButton,mouse.rightButton,mouse.time,mouse.clicked_name,participant,session,date,expName,psychopyVersion,frameRate,expStart,
0,0,0,0,0.023034900004859082,,0.0032368000101996586,5,0.023034900004859082,0.023034900004859082,0.015582399995764717,1.9572222999995574,[0.26296296296296295],[-0.34444444444444444],[1],[0],[0],[1.9411041999992449],['target'],4,001,2024-10-10_12h42.25.347,Visual search task,2024.1.5,None,2024-10-10 12h42.34.588081 +0530,
1,0,1,0,1.973920000004,,1.9598811000032583,5,1.973920000004,1.973920000004,0.009661799995228648,3.3570550000004005,[0.10185185185185185],[-0.30833333333333335],[1],[0],[0],[1.3876239999954123],['target'],4,001,2024-10-10_12h42.25.347,Visual search task,2024.1.5,None,2024-10-10 12h42.34.588081 +0530,
2,0,2,0,3.373987200000556,,3.359214100011741,5,3.373987200000556,3.373987200000556,0.010119100013980642,6.925182700011646,[-0.30925925925925923],[0.4638888888888889],[1],[0],[0],[3.5557450000051176],['target'],4,001,2024-10-10_12h42.25.347,Visual search task,2024.1.5,None,2024-10-10 12h42.34.588081 +0530,
3,0,3,0,6.942348900003708,,6.92747640000016,5,6.942348900003708,6.942348900003708,0.009548700007144362,8.64077160001034,[0.15833333333333333],[0.25277777777777777],[1],[0],[0],[1.7031791000044905],['target'],4,001,2024-10-10_12h42.25.347,Visual search task,2024.1.5,None,2024-10-10 12h42.34.588081 +0530,
4,0,4,0,8.670886300009442,,8.642920199999935,10,8.670886300009442,8.670886300009442,0.02022479999868665,11.457135400007246,[0.18425925925925926],[0.4888888888888889],[1],[0],[0],[2.793209700001171],['target'],4,001,2024-10-10_12h42.25.347,Visual search task,2024.1.5,None,2024-10-10 12h42.34.588081 +0530,
5,0,5,0,11.474307600001339,,11.459376700004213,5,11.474307600001339,11.474307600001339,0.009504999994533136,13.023565499999677,[-0.044444444444444446],[-0.15555555555555556],[1],[0],[0],[1.5541181000007782],['target'],4,001,2024-10-10_12h42.25.347,Visual search task,2024.1.5,None,2024-10-10 12h42.34.588081 +0530,
6,0,6,0,13.053187700003036,,13.025688200010336,10,13.053187700003036,13.053187700003036,0.019809799996437505,15.173234700007015,[-0.5009259259259259],[0.37777777777777777],[1],[0],[0],[2.1270942999981344],['target'],4,001,2024-10-10_12h42.25.347,Visual search task,2024.1.5,None,2024-10-10 12h42.34.588081 +0530,
7,0,7,0,15.191405300007318,,15.175387200011755,5,15.191405300007318,15.191405300007318,0.009811900003114715,16.75634710000304,[-0.08518518518518518],[-0.15555555555555556],[1],[0],[0],[1.5710715999884997],['target'],4,001,2024-10-10_12h42.25.347,Visual search task,2024.1.5,None,2024-10-10 12h42.34.588081 +0530,
8,0,8,0,16.773503100004746,,16.758499300005496,5,16.773503100004746,16.773503100004746,0.0095393000083277,18.98921290000726,[0.44351851851851853],[-0.26851851851851855],[1],[0],[0],[2.220439199998509],['target'],4,001,2024-10-10_12h42.25.347,Visual search task,2024.1.5,None,2024-10-10 12h42.34.588081 +0530,
9,0,9,0,19.007123600007617,,18.991433800008963,5,19.007123600007617,19.007123600007617,0.00974750000750646,20.855799199998728,[0.2898148148148148],[0.43796296296296294],[1],[0],[0],[1.8540302000037627],['target'],4,001,2024-10-10_12h42.25.347,Visual search task,2024.1.5,None,2024-10-10 12h42.34.588081 +0530,
10,0,10,0,20.88683200000378,,20.857940500005498,10,20.88683200000378,20.88683200000378,0.02027789999556262,22.638930800007074,[-0.3490740740740741],[-0.09444444444444444],[1],[0],[0],[1.7599852999992436],['target'],4,001,2024-10-10_12h42.25.347,Visual search task,2024.1.5,None,2024-10-10 12h42.34.588081 +0530,
11,0,11,0,22.65641150000738,,22.64113640000869,5,22.65641150000738,22.65641150000738,0.009587300010025501,24.33772160000808,[0.31574074074074077],[0.18518518518518517],[1],[0],[0],[1.6871375999908196],['target'],4,001,2024-10-10_12h42.25.347,Visual search task,2024.1.5,None,2024-10-10 12h42.34.588081 +0530,
12,0,12,0,24.36686560000817,,24.339877200007322,10,24.36686560000817,24.36686560000817,0.019758299997192807,27.320733000000473,[-0.25555555555555554],[0.46111111111111114],[1],[0],[0],[2.96120879999944],['target'],4,001,2024-10-10_12h42.25.347,Visual search task,2024.1.5,None,2024-10-10 12h42.34.588081 +0530,
13,0,13,0,27.337905000007595,,27.322881200001575,5,27.337905000007595,27.337905000007595,0.009915100003127009,29.720500399998855,[-0.2388888888888889],[-0.30462962962962964],[1],[0],[0],[2.387771800000337],['target'],4,001,2024-10-10_12h42.25.347,Visual search task,2024.1.5,None,2024-10-10 12h42.34.588081 +0530,
14,0,14,0,29.738624800011166,,29.722938400009298,5,29.738624800011166,29.738624800011166,0.010000800000852905,31.487812300008954,[0.42777777777777776],[-0.062037037037037036],[1],[0],[0],[1.754358999998658],['target'],4,001,2024-10-10_12h42.25.347,Visual search task,2024.1.5,None,2024-10-10 12h42.34.588081 +0530,
15,0,15,0,31.518351500009885,,31.490008699998725,10,31.518351500009885,31.518351500009885,0.020047199999680743,33.20413140000892,[0.44074074074074077],[0.044444444444444446],[1],[0],[0],[1.6934112000017194],['target'],4,001,2024-10-10_12h42.25.347,Visual search task,2024.1.5,None,2024-10-10 12h42.34.588081 +0530,
16,0,16,0,33.2218150000117,,33.20629300001019,5,33.2218150000117,33.2218150000117,0.009625699996831827,35.254186100006336,[0.3685185185185185],[-0.412962962962963],[1],[0],[0],[2.0375162999989698],['target'],4,001,2024-10-10_12h42.25.347,Visual search task,2024.1.5,None,2024-10-10 12h42.34.588081 +0530,
17,0,17,0,35.271558899999945,,35.256310500000836,5,35.271558899999945,35.271558899999945,0.009743999995407648,36.82034510000085,[0.1537037037037037],[-0.05092592592592592],[1],[0],[0],[1.553575699988869],['target'],4,001,2024-10-10_12h42.25.347,Visual search task,2024.1.5,None,2024-10-10 12h42.34.588081 +0530,
18,0,18,0,36.8506813999993,,36.82251040000119,10,36.8506813999993,36.8506813999993,0.020358399997348897,38.05282540000917,[-0.14907407407407408],[0.1111111111111111],[1],[0],[0],[1.2100275999982841],['target'],4,001,2024-10-10_12h42.25.347,Visual search task,2024.1.5,None,2024-10-10 12h42.34.588081 +0530,
19,0,19,0,38.081924900005106,,38.05496890000359,10,38.081924900005106,38.081924900005106,0.018935899992357008,40.453427000000374,[-0.33055555555555555],[0.006481481481481481],[1],[0],[0],[2.378743499997654],['target'],4,001,2024-10-10_12h42.25.347,Visual search task,2024.1.5,None,2024-10-10 12h42.34.588081 +0530,
20,0,20,0,40.48232340000686,,40.45562950000749,10,40.48232340000686,40.48232340000686,0.019869800002197735,42.06990320001205,[-0.17407407407407408],[0.3592592592592593],[1],[0],[0],[1.594165399990743],['target'],4,001,2024-10-10_12h42.25.347,Visual search task,2024.1.5,None,2024-10-10 12h42.34.588081 +0530,
21,0,21,0,42.09923510000226,,42.07208550001087,10,42.09923510000226,42.09923510000226,0.020199099992169067,44.819392200006405,[-0.1287037037037037],[0.007407407407407408],[1],[0],[0],[2.72633949998999],['target'],4,001,2024-10-10_12h42.25.347,Visual search task,2024.1.5,None,2024-10-10 12h42.34.588081 +0530,
22,0,22,0,44.836805800005095,,44.82157680000819,5,44.836805800005095,44.836805800005095,0.009683500000392087,46.53599730000133,[0.07962962962962963],[-0.05462962962962963],[1],[0],[0],[1.7043132999970112],['target'],4,001,2024-10-10_12h42.25.347,Visual search task,2024.1.5,None,2024-10-10 12h42.34.588081 +0530,
23,0,23,0,46.566032300004736,,46.53816100000404,10,46.566032300004736,46.566032300004736,0.02010169999266509,48.26903830000083,[0.4064814814814815],[-0.19537037037037036],[1],[0],[0],[1.709897099994123],['target'],4,001,2024-10-10_12h42.25.347,Visual search task,2024.1.5,None,2024-10-10 12h42.34.588081 +0530,
24,0,24,0,48.29772900001262,,48.271246700009215,10,48.29772900001262,48.29772900001262,0.01972609999938868,51.135501199998544,[0.487962962962963],[-0.43148148148148147],[1],[0],[0],[2.843956700002309],['target'],4,001,2024-10-10_12h42.25.347,Visual search task,2024.1.5,None,2024-10-10 12h42.34.588081 +0530,
25,0,25,0,51.15280170000915,,51.13761879999947,5,51.15280170000915,51.15280170000915,0.009654999987105839,52.85100330000569,[-0.12407407407407407],[0.11666666666666667],[1],[0],[0],[1.7038223999988986],['target'],4,001,2024-10-10_12h42.25.347,Visual search task,2024.1.5,None,2024-10-10 12h42.34.588081 +0530,
26,0,26,0,52.86773540001013,,52.8531670000084,5,52.86773540001013,52.86773540001013,0.00983480000286363,54.75153510000382,[-0.39166666666666666],[-0.26296296296296295],[1],[0],[0],[1.888110300002154],['target'],4,001,2024-10-10_12h42.25.347,Visual search task,2024.1.5,None,2024-10-10 12h42.34.588081 +0530,
27,0,27,0,54.78111050000007,,54.75367590000678,10,54.78111050000007,54.78111050000007,0.019907999987481162,57.28463049999846,[0.2916666666666667],[-0.04814814814814815],[1],[0],[0],[2.5102296999975806],['target'],4,001,2024-10-10_12h42.25.347,Visual search task,2024.1.5,None,2024-10-10 12h42.34.588081 +0530,
28,0,28,0,57.31279120000545,,57.28682150000532,10,57.31279120000545,57.31279120000545,0.018732900003669783,60.20092100001057,[0.32685185185185184],[0.49166666666666664],[1],[0],[0],[2.895077000008314],['target'],4,001,2024-10-10_12h42.25.347,Visual search task,2024.1.5,None,2024-10-10 12h42.34.588081 +0530,
29,0,29,0,60.230254000009154,,60.20306130000972,10,60.230254000009154,60.230254000009154,0.019943199993576854,63.15052310000465,[-0.5083333333333333],[-0.4675925925925926],[1],[0],[0],[2.9272370999970008],['target'],4,001,2024-10-10_12h42.25.347,Visual search task,2024.1.5,None,2024-10-10 12h42.34.588081 +0530,
30,0,30,0,63.168322600002284,,63.152686500005075,5,63.168322600002284,63.168322600002284,0.009658399998443201,65.51658090000274,[0.28055555555555556],[0.31203703703703706],[1],[0],[0],[2.3537902000098256],['target'],4,001,2024-10-10_12h42.25.347,Visual search task,2024.1.5,None,2024-10-10 12h42.34.588081 +0530,
31,0,31,0,65.53424920000543,,65.51895490000607,5,65.53424920000543,65.53424920000543,0.009618399999453686,69.11650519999966,[-0.03333333333333333],[-0.046296296296296294],[1],[0],[0],[3.5870951999968383],['target'],4,001,2024-10-10_12h42.25.347,Visual search task,2024.1.5,None,2024-10-10 12h42.34.588081 +0530,
32,0,32,0,69.14648440000019,,69.11869360000128,10,69.14648440000019,69.14648440000019,0.019837900006677955,71.44946950000303,[0.24166666666666667],[-0.04259259259259259],[1],[0],[0],[2.310057099995902],['target'],4,001,2024-10-10_12h42.25.347,Visual search task,2024.1.5,None,2024-10-10 12h42.34.588081 +0530,
33,0,33,0,71.46728820000135,,71.45163640000101,5,71.46728820000135,71.46728820000135,0.009944799996446818,72.71513860000414,[0.032407407407407406],[0.13703703703703704],[1],[0],[0],[1.253630000006524],['target'],4,001,2024-10-10_12h42.25.347,Visual search task,2024.1.5,None,2024-10-10 12h42.34.588081 +0530,
34,0,34,0,72.73376180000196,,72.71772540001257,5,72.73376180000196,72.73376180000196,0.010260399998514913,75.03224540001247,[-0.18981481481481483],[-0.4444444444444444],[1],[0],[0],[2.303588499999023],['target'],4,001,2024-10-10_12h42.25.347,Visual search task,2024.1.5,None,2024-10-10 12h42.34.588081 +0530,
35,0,35,0,75.06104800000321,,75.03440150000097,10,75.06104800000321,75.06104800000321,0.0194813999987673,77.64864020000095,[0.1111111111111111],[0.33240740740740743],[1],[0],[0],[2.594232200004626],['target'],4,001,2024-10-10_12h42.25.347,Visual search task,2024.1.5,None,2024-10-10 12h42.34.588081 +0530,
36,0,36,0,77.67925080000714,,77.65082680000341,10,77.67925080000714,77.67925080000714,0.020276499999454245,79.4983915000048,[0.25925925925925924],[0.09537037037037037],[1],[0],[0],[1.8269723999983398],['target'],4,001,2024-10-10_12h42.25.347,Visual search task,2024.1.5,None,2024-10-10 12h42.34.588081 +0530,
37,0,37,0,79.52713790000416,,79.50055510000675,10,79.52713790000416,79.52713790000416,0.019552900004782714,80.8315733000054,[0.225],[0.2675925925925926],[1],[0],[0],[1.3114865999959875],['target'],4,001,2024-10-10_12h42.25.347,Visual search task,2024.1.5,None,2024-10-10 12h42.34.588081 +0530,
38,0,38,0,80.86000559999957,,80.83373940001184,10,80.86000559999957,80.86000559999957,0.019405099999858066,81.94820790000085,[0.16666666666666666],[0.14444444444444443],[1],[0],[0],[1.0947098000033293],['target'],4,001,2024-10-10_12h42.25.347,Visual search task,2024.1.5,None,2024-10-10 12h42.34.588081 +0530,
39,0,39,0,81.97759470000165,,81.95033810001041,10,81.97759470000165,81.97759470000165,0.019864299989421852,84.53025910000724,[-0.3592592592592593],[0.13240740740740742],[1],[0],[0],[2.5601152000017464],['target'],4,001,2024-10-10_12h42.25.347,Visual search task,2024.1.5,None,2024-10-10 12h42.34.588081 +0530,
40,0,40,0,84.54655970000022,,84.53242470000987,5,84.54655970000022,84.54655970000022,0.009544499989715405,86.13014330000442,[-0.1527777777777778],[0.2074074074074074],[1],[0],[0],[1.5882506000052672],['target'],4,001,2024-10-10_12h42.25.347,Visual search task,2024.1.5,None,2024-10-10 12h42.34.588081 +0530,
41,0,41,0,86.16014410000935,,86.13230610000028,10,86.16014410000935,86.16014410000935,0.018839500000467524,88.0305623000022,[0.287962962962963],[0.3787037037037037],[1],[0],[0],[1.8787251000030665],['target'],4,001,2024-10-10_12h42.25.347,Visual search task,2024.1.5,None,2024-10-10 12h42.34.588081 +0530,
42,0,42,0,88.04823830000532,,88.03273950000585,5,88.04823830000532,88.04823830000532,0.009499899999354966,89.86386540000967,[-0.42592592592592593],[-0.15462962962962962],[1],[0],[0],[1.8208851999952458],['target'],4,001,2024-10-10_12h42.25.347,Visual search task,2024.1.5,None,2024-10-10 12h42.34.588081 +0530,
43,0,43,0,89.89397699999972,,89.86605419999978,10,89.89397699999972,89.89397699999972,0.019978900003479794,91.8959021000046,[0.46111111111111114],[0.12777777777777777],[1],[0],[0],[2.0099563999974634],['target'],4,001,2024-10-10_12h42.25.347,Visual search task,2024.1.5,None,2024-10-10 12h42.34.588081 +0530,
44,0,44,0,91.92485150000721,,91.89806960000715,10,91.92485150000721,91.92485150000721,0.018607299993163906,94.38003090000711,[0.16944444444444445],[-0.33055555555555555],[1],[0],[0],[2.4625106000021333],['target'],4,001,2024-10-10_12h42.25.347,Visual search task,2024.1.5,None,2024-10-10 12h42.34.588081 +0530,
45,0,45,0,94.4095049000025,,94.38227950000146,10,94.4095049000025,94.4095049000025,0.01975700000184588,97.44624670001213,[0.23981481481481481],[-0.44814814814814813],[1],[0],[0],[3.043438299995614],['target'],4,001,2024-10-10_12h42.25.347,Visual search task,2024.1.5,None,2024-10-10 12h42.34.588081 +0530,
46,0,46,0,97.47661670000525,,97.44844170000579,10,97.47661670000525,97.47661670000525,0.019690600005560555,99.59490619999997,[-0.1685185185185185],[0.18425925925925926],[1],[0],[0],[2.1268943999893963],['target'],4,001,2024-10-10_12h42.25.347,Visual search task,2024.1.5,None,2024-10-10 12h42.34.588081 +0530,
47,0,47,0,99.62348130000464,,99.59705010001198,10,99.62348130000464,99.62348130000464,0.01850469999772031,101.99561470000481,[-0.2833333333333333],[-0.24259259259259258],[1],[0],[0],[2.379818500005058],['target'],4,001,2024-10-10_12h42.25.347,Visual search task,2024.1.5,None,2024-10-10 12h42.34.588081 +0530,
48,0,48,0,102.01364780000586,,101.99780880000617,5,102.01364780000586,102.01364780000586,0.009827599991695024,103.76205400000617,[0.23148148148148148],[0.22314814814814815],[1],[0],[0],[1.7536814000050072],['target'],4,001,2024-10-10_12h42.25.347,Visual search task,2024.1.5,None,2024-10-10 12h42.34.588081 +0530,
49,0,49,0,103.79274530000112,,103.76420960000542,10,103.79274530000112,103.79274530000112,0.020892199987429194,106.81068160000723,[0.016666666666666666],[-0.30277777777777776],[1],[0],[0],[3.0255943999945885],['target'],4,001,2024-10-10_12h42.25.347,Visual search task,2024.1.5,None,2024-10-10 12h42.34.588081 +0530,
50,0,50,0,106.83885990000272,,106.81284969999979,10,106.83885990000272,106.83885990000272,0.018532200003392063,108.26161580000189,[-0.15555555555555556],[0.2111111111111111],[1],[0],[0],[1.429425900001661],['target'],4,001,2024-10-10_12h42.25.347,Visual search task,2024.1.5,None,2024-10-10 12h42.34.588081 +0530,
51,0,51,0,108.28014529999928,,108.26376460000756,5,108.28014529999928,108.28014529999928,0.01026080000156071,110.11065100000997,[-0.2324074074074074],[-0.1925925925925926],[1],[0],[0],[1.836654400001862],['target'],4,001,2024-10-10_12h42.25.347,Visual search task,2024.1.5,None,2024-10-10 12h42.34.588081 +0530,
52,0,52,0,110.1396584000031,,110.1128175000049,10,110.1396584000031,110.1396584000031,0.019131699998979457,112.71002430000226,[0.12314814814814815],[-0.003703703703703704],[1],[0],[0],[2.5781631999998353],['target'],4,001,2024-10-10_12h42.25.347,Visual search task,2024.1.5,None,2024-10-10 12h42.34.588081 +0530,
53,0,53,0,112.7295266000001,,112.71232930000406,5,112.7295266000001,112.7295266000001,0.010309099990990944,115.44409550000273,[0.018518518518518517],[0.06944444444444445],[1],[0],[0],[2.7214405000122497],['target'],4,001,2024-10-10_12h42.25.347,Visual search task,2024.1.5,None,2024-10-10 12h42.34.588081 +0530,
54,0,54,0,115.46216020001157,,115.44632820000697,5,115.46216020001157,115.46216020001157,0.010208100007730536,117.52610630000709,[-0.07962962962962963],[-0.21851851851851853],[1],[0],[0],[2.069574699999066],['target'],4,001,2024-10-10_12h42.25.347,Visual search task,2024.1.5,None,2024-10-10 12h42.34.588081 +0530,
55,0,55,0,117.54579620000732,,117.52889990000403,5,117.54579620000732,117.54579620000732,0.011808499999460764,119.05919280000671,[-0.35],[0.31574074074074077],[1],[0],[0],[1.518699899999774],['target'],4,001,2024-10-10_12h42.25.347,Visual search task,2024.1.5,None,2024-10-10 12h42.34.588081 +0530,
56,0,56,0,119.09552780000377,,119.0619563000073,10,119.09552780000377,119.09552780000377,0.02588869999453891,121.34294310001133,[-0.39166666666666666],[-0.044444444444444446],[1],[0],[0],[2.2545991000079084],['target'],4,001,2024-10-10_12h42.25.347,Visual search task,2024.1.5,None,2024-10-10 12h42.34.588081 +0530,
57,0,57,0,121.37210960000812,,121.34509020000405,10,121.37210960000812,121.37210960000812,0.01972599999862723,123.39194970000244,[-0.01574074074074074],[0.1574074074074074],[1],[0],[0],[2.0271696999989217],['target'],4,001,2024-10-10_12h42.25.347,Visual search task,2024.1.5,None,2024-10-10 12h42.34.588081 +0530,
58,0,58,0,123.40941420001036,,123.39423790000728,5,123.40941420001036,123.40941420001036,0.010202699995716102,125.74257780000335,[0.20925925925925926],[-0.3712962962962963],[1],[0],[0],[2.3378861000092],['target'],4,001,2024-10-10_12h42.25.347,Visual search task,2024.1.5,None,2024-10-10 12h42.34.588081 +0530,
59,0,59,0,125.7603955000086,,125.74484470000607,5,125.7603955000086,125.7603955000086,0.010011599995777942,127.62613300001249,[-0.05740740740740741],[-0.1638888888888889],[1],[0],[0],[1.8714011999982176],['target'],4,001,2024-10-10_12h42.25.347,Visual search task,2024.1.5,None,2024-10-10 12h42.34.588081 +0530,
60,0,60,0,127.64411300000211,,127.62827320001088,5,127.64411300000211,127.64411300000211,0.009637800001655705,129.0254724000115,[0.04537037037037037],[-0.06388888888888888],[1],[0],[0],[1.386974500012002],['target'],4,001,2024-10-10_12h42.25.347,Visual search task,2024.1.5,None,2024-10-10 12h42.34.588081 +0530,
61,0,61,0,129.0544821000076,,129.02758069999982,10,129.0544821000076,129.0544821000076,0.019556899991584942,130.94083659999887,[-0.17777777777777778],[0.2935185185185185],[1],[0],[0],[1.893807200001902],['target'],4,001,2024-10-10_12h42.25.347,Visual search task,2024.1.5,None,2024-10-10 12h42.34.588081 +0530,
62,0,62,0,130.97005340000032,,130.94300160001148,10,130.97005340000032,130.97005340000032,0.019086000000243075,134.84140710000065,[-0.3611111111111111],[0.4861111111111111],[1],[0],[0],[3.8785061000089627],['target'],4,001,2024-10-10_12h42.25.347,Visual search task,2024.1.5,None,2024-10-10 12h42.34.588081 +0530,
63,0,63,0,134.87190690000716,,134.84354100000928,10,134.87190690000716,134.87190690000716,0.019790799997281283,138.19103500001074,[0.15092592592592594],[0.03333333333333333],[1],[0],[0],[3.326770999992732],['target'],4,001,2024-10-10_12h42.25.347,Visual search task,2024.1.5,None,2024-10-10 12h42.34.588081 +0530,
64,0,64,0,138.20871630001056,,138.19336050000857,5,138.20871630001056,138.20871630001056,0.01000529999146238,140.5905630000052,[0.32222222222222224],[0.46296296296296297],[1],[0],[0],[2.3864748000050895],['target'],4,001,2024-10-10_12h42.25.347,Visual search task,2024.1.5,None,2024-10-10 12h42.34.588081 +0530,
65,0,65,0,140.6197891000047,,140.5926873999997,10,140.6197891000047,140.6197891000047,0.019572799996240065,143.27356290000898,[0.1361111111111111],[-0.2175925925925926],[1],[0],[0],[2.660624900003313],['target'],4,001,2024-10-10_12h42.25.347,Visual search task,2024.1.5,None,2024-10-10 12h42.34.588081 +0530,
66,0,66,0,143.29146560000663,,143.27573010000924,5,143.29146560000663,143.29146560000663,0.009678799993707798,145.15682519999973,[-0.16296296296296298],[-0.3861111111111111],[1],[0],[0],[1.8707214000023669],['target'],4,001,2024-10-10_12h42.25.347,Visual search task,2024.1.5,None,2024-10-10 12h42.34.588081 +0530,
67,0,67,0,145.18720870000834,,145.15904110000702,10,145.18720870000834,145.18720870000834,0.019543300004443154,147.78963330000988,[-0.16111111111111112],[-0.40370370370370373],[1],[0],[0],[2.610396200005198],['target'],4,001,2024-10-10_12h42.25.347,Visual search task,2024.1.5,None,2024-10-10 12h42.34.588081 +0530,
68,0,68,0,147.80697740000323,,147.7918168000033,5,147.80697740000323,147.80697740000323,0.009614099995815195,150.45508440000413,[0.1962962962962963],[-0.12314814814814815],[1],[0],[0],[2.65382540000428],['target'],4,001,2024-10-10_12h42.25.347,Visual search task,2024.1.5,None,2024-10-10 12h42.34.588081 +0530,
69,0,69,0,150.47141790000023,,150.45720980000624,5,150.47141790000023,150.47141790000023,0.00949409999884665,152.02153160001035,[0.22777777777777777],[0.42407407407407405],[1],[0],[0],[1.5549761000002036],['target'],4,001,2024-10-10_12h42.25.347,Visual search task,2024.1.5,None,2024-10-10 12h42.34.588081 +0530,
70,0,70,0,152.0514700000058,,152.02368009999918,10,152.0514700000058,152.0514700000058,0.018635800006450154,154.18881880000117,[-0.26481481481481484],[-0.24166666666666667],[1],[0],[0],[2.145793200004846],['target'],4,001,2024-10-10_12h42.25.347,Visual search task,2024.1.5,None,2024-10-10 12h42.34.588081 +0530,
71,0,71,0,154.20623270000215,,154.19100980000803,5,154.20623270000215,154.20623270000215,0.00965939999150578,156.35441359999822,[-0.3537037037037037],[-0.05],[1],[0],[0],[2.1538394000090193],['target'],4,001,2024-10-10_12h42.25.347,Visual search task,2024.1.5,None,2024-10-10 12h42.34.588081 +0530,
72,0,72,0,156.3821414999984,,156.35652230000414,10,156.3821414999984,156.3821414999984,0.018568899991805665,158.0877632000047,[-0.3638888888888889],[-0.2324074074074074],[1],[0],[0],[1.7127991000015754],['target'],4,001,2024-10-10_12h42.25.347,Visual search task,2024.1.5,None,2024-10-10 12h42.34.588081 +0530,
73,0,73,0,158.11657460000424,,158.08991819999937,10,158.11657460000424,158.11657460000424,0.01836349999939557,160.72149060000083,[0.13333333333333333],[0.44351851851851853],[1],[0],[0],[2.612409299996216],['target'],4,001,2024-10-10_12h42.25.347,Visual search task,2024.1.5,None,2024-10-10 12h42.34.588081 +0530,
74,0,74,0,160.75269860000117,,160.7236841999984,10,160.75269860000117,160.75269860000117,0.02086309999867808,163.8533371000085,[-0.37962962962962965],[-0.21388888888888888],[1],[0],[0],[3.1089709000079893],['target'],4,001,2024-10-10_12h42.25.347,Visual search task,2024.1.5,None,2024-10-10 12h42.34.588081 +0530,
75,0,75,0,163.87063960000523,,163.85548080000444,5,163.87063960000523,163.87063960000523,0.009488800002145581,165.20430860000488,[-0.25925925925925924],[-0.3212962962962963],[1],[0],[0],[1.3390497999935178],['target'],4,001,2024-10-10_12h42.25.347,Visual search task,2024.1.5,None,2024-10-10 12h42.34.588081 +0530,
76,0,76,0,165.2214079000114,,165.20643120000022,5,165.2214079000114,165.2214079000114,0.009582099999533966,166.453932000004,[0.028703703703703703],[-0.1648148148148148],[1],[0],[0],[1.2372303000011016],['target'],4,001,2024-10-10_12h42.25.347,Visual search task,2024.1.5,None,2024-10-10 12h42.34.588081 +0530,
77,0,77,0,166.471394600012,,166.45617050000874,5,166.471394600012,166.471394600012,0.00953569999546744,168.27032140000665,[-0.33796296296296297],[0.3194444444444444],[1],[0],[0],[1.8039202000072692],['target'],4,001,2024-10-10_12h42.25.347,Visual search task,2024.1.5,None,2024-10-10 12h42.34.588081 +0530,
78,0,78,0,168.300232900001,,168.27263980000862,10,168.300232900001,168.300232900001,0.019816300002275966,169.9192994000041,[-0.1111111111111111],[0.027777777777777776],[1],[0],[0],[1.626960000008694],['target'],4,001,2024-10-10_12h42.25.347,Visual search task,2024.1.5,None,2024-10-10 12h42.34.588081 +0530,
79,0,79,0,169.93649390000792,,169.92150680000486,5,169.93649390000792,169.93649390000792,0.009960700001101941,171.3024710000027,[0.07314814814814814],[-0.13703703703703704],[1],[0],[0],[1.3710075999988476],['target'],4,001,2024-10-10_12h42.25.347,Visual search task,2024.1.5,None,2024-10-10 12h42.34.588081 +0530,
80,0,80,0,171.33224220000557,,171.30460230000608,10,171.33224220000557,171.33224220000557,0.018883999990066513,174.35215080001217,[0.13796296296296295],[-0.40555555555555556],[1],[0],[0],[3.0287312000000384],['target'],4,001,2024-10-10_12h42.25.347,Visual search task,2024.1.5,None,2024-10-10 12h42.34.588081 +0530,
81,0,81,0,174.3813860000082,,174.3543093000044,10,174.3813860000082,174.3813860000082,0.018483399995602667,175.5696842000034,[-0.29907407407407405],[-0.05740740740740741],[1],[0],[0],[1.1962128000013763],['target'],4,001,2024-10-10_12h42.25.347,Visual search task,2024.1.5,None,2024-10-10 12h42.34.588081 +0530,
82,0,82,0,175.5867459000001,,175.5718302000023,5,175.5867459000001,175.5867459000001,0.009503700013738126,176.71854750000057,[-0.25092592592592594],[0.17037037037037037],[1],[0],[0],[1.1372820999968098],['target'],4,001,2024-10-10_12h42.25.347,Visual search task,2024.1.5,None,2024-10-10 12h42.34.588081 +0530,
83,0,83,0,176.73850630001107,,176.7211271999986,5,176.73850630001107,176.73850630001107,0.011746499993023463,178.70164350001141,[0.41388888888888886],[-0.4185185185185185],[1],[0],[0],[1.9688563000090653],['target'],4,001,2024-10-10_12h42.25.347,Visual search task,2024.1.5,None,2024-10-10 12h42.34.588081 +0530,
84,0,84,0,178.73198490000505,,178.70406080000976,10,178.73198490000505,178.73198490000505,0.01986380000016652,180.25221279999823,[-0.10925925925925926],[0.1648148148148148],[1],[0],[0],[1.527523700002348],['target'],4,001,2024-10-10_12h42.25.347,Visual search task,2024.1.5,None,2024-10-10 12h42.34.588081 +0530,
85,0,85,0,180.27028580001206,,180.2543766000017,5,180.27028580001206,180.27028580001206,0.00969650001206901,181.967859100012,[-0.2759259259259259],[-0.36574074074074076],[1],[0],[0],[1.7038814999978058],['target'],4,001,2024-10-10_12h42.25.347,Visual search task,2024.1.5,None,2024-10-10 12h42.34.588081 +0530,
86,0,86,0,181.98512599999958,,181.96999360001064,5,181.98512599999958,181.98512599999958,0.00952809999580495,184.03487650000898,[0.21666666666666667],[-0.3277777777777778],[1],[0],[0],[2.054834700000356],['target'],4,001,2024-10-10_12h42.25.347,Visual search task,2024.1.5,None,2024-10-10 12h42.34.588081 +0530,
87,0,87,0,184.06565470001078,,184.03718780000054,10,184.06565470001078,184.06565470001078,0.019564300004276447,185.78486220000195,[0.3888888888888889],[0.3907407407407407],[1],[0],[0],[1.7273200000054203],['target'],4,001,2024-10-10_12h42.25.347,Visual search task,2024.1.5,None,2024-10-10 12h42.34.588081 +0530,
88,0,88,0,185.81546540001,,185.78704700000526,10,185.81546540001,185.81546540001,0.02024399999936577,188.70099180001125,[0.25277777777777777],[-0.23425925925925925],[1],[0],[0],[2.8933668000099715],['target'],4,001,2024-10-10_12h42.25.347,Visual search task,2024.1.5,None,2024-10-10 12h42.34.588081 +0530,
89,0,89,0,188.73461120000866,,188.70332179999969,10,188.73461120000866,188.73461120000866,0.021741500007919967,191.60097360001237,[-0.25092592592592594],[-0.41944444444444445],[1],[0],[0],[2.8754486000107136],['target'],4,001,2024-10-10_12h42.25.347,Visual search task,2024.1.5,None,2024-10-10 12h42.34.588081 +0530,
90,0,90,0,191.61805740000273,,191.60311809999985,5,191.61805740000273,191.61805740000273,0.00948959999368526,193.3840671000071,[-0.3138888888888889],[-0.16296296296296298],[1],[0],[0],[1.7707248000078835],['target'],4,001,2024-10-10_12h42.25.347,Visual search task,2024.1.5,None,2024-10-10 12h42.34.588081 +0530,
91,0,91,0,193.40119600000617,,193.38621730000887,5,193.40119600000617,193.40119600000617,0.009623899997677654,195.71678930000053,[0.2916666666666667],[0.29074074074074074],[1],[0],[0],[2.3204853999923216],['target'],4,001,2024-10-10_12h42.25.347,Visual search task,2024.1.5,None,2024-10-10 12h42.34.588081 +0530,
92,0,92,0,195.734881100012,,195.71924790000776,5,195.734881100012,195.734881100012,0.009586400003172457,198.4323785000015,[-0.22870370370370371],[-0.3287037037037037],[1],[0],[0],[2.703666700006579],['target'],4,001,2024-10-10_12h42.25.347,Visual search task,2024.1.5,None,2024-10-10 12h42.34.588081 +0530,
93,0,93,0,198.45985910001036,,198.4345253000065,10,198.45985910001036,198.45985910001036,0.01867810000840109,200.24907320000057,[0.387037037037037],[-0.2],[1],[0],[0],[1.7958829999988666],['target'],4,001,2024-10-10_12h42.25.347,Visual search task,2024.1.5,None,2024-10-10 12h42.34.588081 +0530,
94,0,94,0,200.26715280000644,,200.25153310000314,5,200.26715280000644,200.26715280000644,0.009787599992705509,201.91626520000864,[-0.014814814814814815],[0.2916666666666667],[1],[0],[0],[1.6542126999993343],['target'],4,001,2024-10-10_12h42.25.347,Visual search task,2024.1.5,None,2024-10-10 12h42.34.588081 +0530,
95,0,95,0,201.93351100001018,,201.9184447000007,5,201.93351100001018,201.93351100001018,0.009664900004281662,203.73253660000046,[0.1712962962962963],[0.3685185185185185],[1],[0],[0],[1.8038262999907602],['target'],4,001,2024-10-10_12h42.25.347,Visual search task,2024.1.5,None,2024-10-10 12h42.34.588081 +0530,
96,0,96,0,203.76116740000725,,203.73469650000334,10,203.76116740000725,203.76116740000725,0.019956100004492328,205.78220919999876,[-0.11851851851851852],[0.03148148148148148],[1],[0],[0],[2.026932599997963],['target'],4,001,2024-10-10_12h42.25.347,Visual search task,2024.1.5,None,2024-10-10 12h42.34.588081 +0530,
97,0,97,0,205.7987412000075,,205.78438740001002,5,205.7987412000075,205.7987412000075,0.009596500007319264,207.56455419999838,[-0.41203703703703703],[-0.2722222222222222],[1],[0],[0],[1.770709500007797],['target'],4,001,2024-10-10_12h42.25.347,Visual search task,2024.1.5,None,2024-10-10 12h42.34.588081 +0530,
98,0,98,0,207.58070430000953,,207.56668730000092,5,207.58070430000953,207.58070430000953,0.009522499996819533,209.3987296999985,[-0.2796296296296296],[-0.2537037037037037],[1],[0],[0],[1.8217193999880692],['target'],4,001,2024-10-10_12h42.25.347,Visual search task,2024.1.5,None,2024-10-10 12h42.34.588081 +0530,
99,0,99,0,209.42765290000534,,209.4008896000014,10,209.42765290000534,209.42765290000534,0.01991719999932684,212.04736019999837,[-0.06296296296296296],[0.42314814814814816],[1],[0],[0],[2.626629500009585],['target'],4,001,2024-10-10_12h42.25.347,Visual search task,2024.1.5,None,2024-10-10 12h42.34.588081 +0530,
100,0,100,0,212.06354560000182,,212.04952070000581,5,212.06354560000182,212.06354560000182,0.009582600003341213,213.84797339999932,[-0.12407407407407407],[-0.04814814814814815],[1],[0],[0],[1.7881489999999758],['target'],4,001,2024-10-10_12h42.25.347,Visual search task,2024.1.5,None,2024-10-10 12h42.34.588081 +0530,
101,0,101,0,213.87730450001254,,213.85013120000076,10,213.87730450001254,213.87730450001254,0.01949350000359118,216.28082780000113,[-0.36666666666666664],[-0.08703703703703704],[1],[0],[0],[2.4105313000036404],['target'],4,001,2024-10-10_12h42.25.347,Visual search task,2024.1.5,None,2024-10-10 12h42.34.588081 +0530,
102,0,102,0,216.3099038000073,,216.28298010000435,10,216.3099038000073,216.3099038000073,0.019175300010829233,218.96411190000072,[-0.3435185185185185],[-0.2962962962962963],[1],[0],[0],[2.661221399990609],['target'],4,001,2024-10-10_12h42.25.347,Visual search task,2024.1.5,None,2024-10-10 12h42.34.588081 +0530,
103,0,103,0,218.98127950000344,,218.96632490000047,5,218.98127950000344,218.98127950000344,0.009859900004812516,220.78068670000357,[-0.0787037037037037],[-0.17037037037037037],[1],[0],[0],[1.8043840000027558],['target'],4,001,2024-10-10_12h42.25.347,Visual search task,2024.1.5,None,2024-10-10 12h42.34.588081 +0530,
104,0,104,0,220.7979217000102,,220.7828264000127,5,220.7979217000102,220.7979217000102,0.009584600004018284,222.1969656000001,[-0.07407407407407407],[0.1537037037037037],[1],[0],[0],[1.4037877000082517],['target'],4,001,2024-10-10_12h42.25.347,Visual search task,2024.1.5,None,2024-10-10 12h42.34.588081 +0530,
105,0,105,0,222.2270916000125,,222.19911330001196,10,222.2270916000125,222.2270916000125,0.019564200003514998,223.8125904000044,[-0.4361111111111111],[-0.05277777777777778],[1],[0],[0],[1.5939290000096662],['target'],4,001,2024-10-10_12h42.25.347,Visual search task,2024.1.5,None,2024-10-10 12h42.34.588081 +0530,
106,0,106,0,223.84118080000917,,223.8147575000039,10,223.84118080000917,223.84118080000917,0.01841029999195598,226.41314670001157,[0.29074074074074074],[-0.39166666666666666],[1],[0],[0],[2.579161400004523],['target'],4,001,2024-10-10_12h42.25.347,Visual search task,2024.1.5,None,2024-10-10 12h42.34.588081 +0530,
107,0,107,0,226.44312690000515,,226.4153565000015,10,226.44312690000515,226.44312690000515,0.02001409999502357,228.51197560000583,[-0.24259259259259258],[-0.32222222222222224],[1],[0],[0],[2.076670300011756],['target'],4,001,2024-10-10_12h42.25.347,Visual search task,2024.1.5,None,2024-10-10 12h42.34.588081 +0530,
108,0,108,0,228.52916190000542,,228.51415690001159,5,228.52916190000542,228.52916190000542,0.00993190000008326,230.04509920001146,[-0.33796296296296297],[0.11574074074074074],[1],[0],[0],[1.521074000003864],['target'],4,001,2024-10-10_12h42.25.347,Visual search task,2024.1.5,None,2024-10-10 12h42.34.588081 +0530,
109,0,109,0,230.06213400000706,,230.04732990000048,5,230.06213400000706,230.06213400000706,0.010025100011262111,231.21256900001026,[-0.2462962962962963],[0.2916666666666667],[1],[0],[0],[1.1543210999952862],['target'],4,001,2024-10-10_12h42.25.347,Visual search task,2024.1.5,None,2024-10-10 12h42.34.588081 +0530,
110,0,110,0,231.23050960000546,,231.21475389999978,5,231.23050960000546,231.23050960000546,0.009796199999982491,232.39549540000735,[-0.1537037037037037],[0.22592592592592592],[1],[0],[0],[1.1701872999983607],['target'],4,001,2024-10-10_12h42.25.347,Visual search task,2024.1.5,None,2024-10-10 12h42.34.588081 +0530,
111,0,111,0,232.41446420000284,,232.39769250000245,5,232.41446420000284,232.41446420000284,0.010292099992511794,234.04545510000025,[-0.47962962962962963],[0.1824074074074074],[1],[0],[0],[1.6367330000066431],['target'],4,001,2024-10-10_12h42.25.347,Visual search task,2024.1.5,None,2024-10-10 12h42.34.588081 +0530,
112,0,112,0,234.0644054000004,,234.04764699999942,5,234.0644054000004,234.0644054000004,0.009999700007028878,235.39538510001148,[-0.26851851851851855],[0.16666666666666666],[1],[0],[0],[1.3368110999872442],['target'],4,001,2024-10-10_12h42.25.347,Visual search task,2024.1.5,None,2024-10-10 12h42.34.588081 +0530,
113,0,113,0,235.42568620000384,,235.39767990000837,10,235.42568620000384,235.42568620000384,0.02094050000596326,237.2614704000007,[0.2611111111111111],[-0.03425925925925926],[1],[0],[0],[1.8421206000057282],['target'],4,001,2024-10-10_12h42.25.347,Visual search task,2024.1.5,None,2024-10-10 12h42.34.588081 +0530,
114,0,114,0,237.2923843000026,,237.26368670001102,10,237.2923843000026,237.2923843000026,0.0204232999967644,239.36139700000058,[-0.05925925925925926],[-0.04351851851851852],[1],[0],[0],[2.0765328999987105],['target'],4,001,2024-10-10_12h42.25.347,Visual search task,2024.1.5,None,2024-10-10 12h42.34.588081 +0530,
115,0,115,0,239.3952205000096,,239.3636855000077,10,239.3952205000096,239.3952205000096,0.020551599998725578,241.84360000000743,[-0.4444444444444444],[0.3527777777777778],[1],[0],[0],[2.459339599998202],['target'],4,001,2024-10-10_12h42.25.347,Visual search task,2024.1.5,None,2024-10-10 12h42.34.588081 +0530,
116,0,116,0,241.8712177000125,,241.8457974000048,10,241.8712177000125,241.8712177000125,0.018711199998506345,244.5774620000011,[-0.3851851851851852],[0.42314814814814816],[1],[0],[0],[2.7124198999954388],['target'],4,001,2024-10-10_12h42.25.347,Visual search task,2024.1.5,None,2024-10-10 12h42.34.588081 +0530,
117,0,117,0,244.60713440000836,,244.57965800000238,10,244.60713440000836,244.60713440000836,0.020204799991915934,246.2608590000018,[0.17314814814814813],[0.26944444444444443],[1],[0],[0],[1.6600571000017226],['target'],4,001,2024-10-10_12h42.25.347,Visual search task,2024.1.5,None,2024-10-10 12h42.34.588081 +0530,
118,0,118,0,246.28961510000227,,246.26301760000933,10,246.28961510000227,246.28961510000227,0.01950770000985358,247.34406440000748,[0.21388888888888888],[0.2611111111111111],[1],[0],[0],[1.061535200002254],['target'],4,001,2024-10-10_12h42.25.347,Visual search task,2024.1.5,None,2024-10-10 12h42.34.588081 +0530,
119,0,119,0,247.3740523000015,,247.34631880000234,10,247.3740523000015,247.3740523000015,0.020707899995613843,248.5437624000042,[0.2212962962962963],[0.29907407407407405],[1],[0],[0],[1.1759165000112262],['target'],4,001,2024-10-10_12h42.25.347,Visual search task,2024.1.5,None,2024-10-10 12h42.34.588081 +0530,
120,0,120,0,248.56143310001062,,248.54603920000955,5,248.56143310001062,248.56143310001062,0.010048900003312156,250.15994310000679,[-0.462037037037037],[0.3212962962962963],[1],[0],[0],[1.603255199996056],['target'],4,001,2024-10-10_12h42.25.347,Visual search task,2024.1.5,None,2024-10-10 12h42.34.588081 +0530,
121,0,121,0,250.17702160000044,,250.16209860000527,5,250.17702160000044,250.17702160000044,0.009841799997957423,251.84305860000313,[-0.4166666666666667],[-0.26296296296296295],[1],[0],[0],[1.670383499993477],['target'],4,001,2024-10-10_12h42.25.347,Visual search task,2024.1.5,None,2024-10-10 12h42.34.588081 +0530,
122,0,122,0,251.86151130001235,,251.84546120000596,5,251.86151130001235,251.86151130001235,0.010872099999687634,253.19298530000378,[0.43703703703703706],[0.1814814814814815],[1],[0],[0],[1.3359652999934042],['target'],4,001,2024-10-10_12h42.25.347,Visual search task,2024.1.5,None,2024-10-10 12h42.34.588081 +0530,
123,0,123,0,253.22191839999869,,253.19517260001157,10,253.22191839999869,253.22191839999869,0.019659300000057556,255.37556150001183,[-0.35648148148148145],[-0.23796296296296296],[1],[0],[0],[2.160880299998098],['target'],4,001,2024-10-10_12h42.25.347,Visual search task,2024.1.5,None,2024-10-10 12h42.34.588081 +0530,
124,0,124,0,255.39218390001042,,255.37768980000692,5,255.39218390001042,255.39218390001042,0.009386999998241663,256.5928430000058,[-0.3435185185185185],[0.3148148148148148],[1],[0],[0],[1.2048315000138246],['target'],4,001,2024-10-10_12h42.25.347,Visual search task,2024.1.5,None,2024-10-10 12h42.34.588081 +0530,
125,0,125,0,256.62187830000767,,256.59499360001064,10,256.62187830000767,256.62187830000767,0.019576899998355657,258.14240870000503,[0.3351851851851852],[0.1648148148148148],[1],[0],[0],[1.5271206999896094],['target'],4,001,2024-10-10_12h42.25.347,Visual search task,2024.1.5,None,2024-10-10 12h42.34.588081 +0530,
126,0,126,0,258.1734829000052,,258.1445883999986,10,258.1734829000052,258.1734829000052,0.020032400003401563,259.4256688000023,[0.2574074074074074],[0.22777777777777777],[1],[0],[0],[1.2602518000057898],['target'],4,001,2024-10-10_12h42.25.347,Visual search task,2024.1.5,None,2024-10-10 12h42.34.588081 +0530,
127,0,127,0,259.44281390000833,,259.42784190000384,5,259.44281390000833,259.44281390000833,0.009556600009091198,261.64130610000575,[-0.44351851851851853],[0.06759259259259259],[1],[0],[0],[2.203896499995608],['target'],4,001,2024-10-10_12h42.25.347,Visual search task,2024.1.5,None,2024-10-10 12h42.34.588081 +0530,
128,0,128,0,261.6593617000035,,261.6434403000021,5,261.6593617000035,261.6593617000035,0.009392399995704181,263.47518610001134,[0.47314814814814815],[-0.42592592592592593],[1],[0],[0],[1.8214828000054695],['target'],4,001,2024-10-10_12h42.25.347,Visual search task,2024.1.5,None,2024-10-10 12h42.34.588081 +0530,
129,0,129,0,263.4932759000076,,263.4773189000116,5,263.4932759000076,263.4932759000076,0.009823299988056533,265.1415001999994,[0.26944444444444443],[-0.22777777777777777],[1],[0],[0],[1.6536343000043416],['target'],4,001,2024-10-10_12h42.25.347,Visual search task,2024.1.5,None,2024-10-10 12h42.34.588081 +0530,
130,0,130,0,265.158863500008,,265.1436575000116,5,265.158863500008,265.158863500008,0.009454300001380034,266.6914398000081,[-0.27685185185185185],[0.012037037037037037],[1],[0],[0],[1.5375033000018448],['target'],4,001,2024-10-10_12h42.25.347,Visual search task,2024.1.5,None,2024-10-10 12h42.34.588081 +0530,
131,0,131,0,266.709877900008,,266.69358010000724,5,266.709877900008,266.709877900008,0.009561800005030818,268.7243870000093,[0.4685185185185185],[-0.2212962962962963],[1],[0],[0],[2.020480499995756],['target'],4,001,2024-10-10_12h42.25.347,Visual search task,2024.1.5,None,2024-10-10 12h42.34.588081 +0530,
132,0,132,0,268.7419009000005,,268.7265618000092,5,268.7419009000005,268.7419009000005,0.009604600010789,270.62382870000147,[0.462037037037037],[-0.4759259259259259],[1],[0],[0],[1.8877756000001682],['target'],4,001,2024-10-10_12h42.25.347,Visual search task,2024.1.5,None,2024-10-10 12h42.34.588081 +0530,
133,0,133,0,270.6408220000012,,270.62595080000756,5,270.6408220000012,270.6408220000012,0.009823200001846999,272.241001900009,[0.42314814814814816],[0.38796296296296295],[1],[0],[0],[1.6044918999978108],['target'],4,001,2024-10-10_12h42.25.347,Visual search task,2024.1.5,None,2024-10-10 12h42.34.588081 +0530,
134,0,134,0,272.25808710001,,272.2431343000062,5,272.25808710001,272.25808710001,0.009571400005370378,274.190250700005,[-0.22777777777777777],[0.1],[1],[0],[0],[1.936893300007796],['target'],4,001,2024-10-10_12h42.25.347,Visual search task,2024.1.5,None,2024-10-10 12h42.34.588081 +0530,
135,0,135,0,274.2188709000038,,274.1924393000081,10,274.2188709000038,274.2188709000038,0.019504900003084913,276.040015400009,[-0.36203703703703705],[-0.05555555555555555],[1],[0],[0],[1.8273974999901839],['target'],4,001,2024-10-10_12h42.25.347,Visual search task,2024.1.5,None,2024-10-10 12h42.34.588081 +0530,
136,0,136,0,276.0572889000032,,276.0422061999998,5,276.0572889000032,276.0572889000032,0.009629499996663071,279.30557599999884,[-0.3675925925925926],[0.4740740740740741],[1],[0],[0],[3.2538074999902165],['target'],4,001,2024-10-10_12h42.25.347,Visual search task,2024.1.5,None,2024-10-10 12h42.34.588081 +0530,
137,0,137,0,279.32259540000814,,279.3077054000023,5,279.32259540000814,279.32259540000814,0.009442499998840503,281.2562478000036,[-0.11481481481481481],[-0.022222222222222223],[1],[0],[0],[1.9386870000016643],['target'],4,001,2024-10-10_12h42.25.347,Visual search task,2024.1.5,None,2024-10-10 12h42.34.588081 +0530,
138,0,138,0,281.2750290000113,,281.2584273000102,5,281.2750290000113,281.2750290000113,0.009512400007224642,283.189180500005,[-0.2851851851851852],[-0.3453703703703704],[1],[0],[0],[1.9205063999979757],['target'],4,001,2024-10-10_12h42.25.347,Visual search task,2024.1.5,None,2024-10-10 12h42.34.588081 +0530,
139,0,139,0,283.21908890000486,,283.1913288000069,10,283.21908890000486,283.21908890000486,0.019287699993583374,284.6221857000055,[-0.2064814814814815],[0.08148148148148149],[1],[0],[0],[1.4109645999997156],['target'],4,001,2024-10-10_12h42.25.347,Visual search task,2024.1.5,None,2024-10-10 12h42.34.588081 +0530,
140,0,140,0,284.6514365000039,,284.6243417000078,10,284.6514365000039,284.6514365000039,0.019495200001983903,286.2056774000084,[-0.3731481481481482],[-0.2490740740740741],[1],[0],[0],[1.5611361999908695],['target'],4,001,2024-10-10_12h42.25.347,Visual search task,2024.1.5,None,2024-10-10 12h42.34.588081 +0530,
141,0,141,0,286.2361890000029,,286.2078419000027,10,286.2361890000029,286.2361890000029,0.01957340000080876,289.4052655000123,[0.021296296296296296],[0.48518518518518516],[1],[0],[0],[3.1770245999941835],['target'],4,001,2024-10-10_12h42.25.347,Visual search task,2024.1.5,None,2024-10-10 12h42.34.588081 +0530,
142,0,142,0,289.43399960000534,,289.40741010000056,10,289.43399960000534,289.43399960000534,0.019713200003025122,291.5039362000098,[0.19166666666666668],[-0.21574074074074073],[1],[0],[0],[2.0769432000088273],['target'],4,001,2024-10-10_12h42.25.347,Visual search task,2024.1.5,None,2024-10-10 12h42.34.588081 +0530,
143,0,143,0,291.52069910000137,,291.506071900003,5,291.52069910000137,291.52069910000137,0.00973109999904409,293.17184400001133,[-0.4185185185185185],[-0.15555555555555556],[1],[0],[0],[1.655280799997854],['target'],4,001,2024-10-10_12h42.25.347,Visual search task,2024.1.5,None,2024-10-10 12h42.34.588081 +0530,
144,0,144,0,293.20020400000794,,293.1740424000018,10,293.20020400000794,293.20020400000794,0.01939929999934975,294.68775740001,[0.0712962962962963],[-0.44907407407407407],[1],[0],[0],[1.493634500002372],['target'],4,001,2024-10-10_12h42.25.347,Visual search task,2024.1.5,None,2024-10-10 12h42.34.588081 +0530,
145,0,145,0,294.71660559999873,,294.6899268999987,10,294.71660559999873,294.71660559999873,0.019711700006155297,296.4876595000096,[0.3074074074074074],[0.25092592592592594],[1],[0],[0],[1.7772000999975717],['target'],4,001,2024-10-10_12h42.25.347,Visual search task,2024.1.5,None,2024-10-10 12h42.34.588081 +0530,
146,0,146,0,296.51787570001034,,296.48985510000784,10,296.51787570001034,296.51787570001034,0.01993640000000596,298.6374985000002,[-0.15185185185185185],[-0.38425925925925924],[1],[0],[0],[2.126873599991086],['target'],4,001,2024-10-10_12h42.25.347,Visual search task,2024.1.5,None,2024-10-10 12h42.34.588081 +0530,
147,0,147,0,298.65574860000925,,298.6396500000119,5,298.65574860000925,298.65574860000925,0.009670800005551428,300.25372370000696,[0.4675925925925926],[0.005555555555555556],[1],[0],[0],[1.6037826000101632],['target'],4,001,2024-10-10_12h42.25.347,Visual search task,2024.1.5,None,2024-10-10 12h42.34.588081 +0530,
148,0,148,0,300.27081040000485,,300.25592380001035,5,300.27081040000485,300.27081040000485,0.009419499998330139,302.0528418000031,[0.03981481481481482],[-0.046296296296296294],[1],[0],[0],[1.7875695999973686],['target'],4,001,2024-10-10_12h42.25.347,Visual search task,2024.1.5,None,2024-10-10 12h42.34.588081 +0530,
149,0,149,0,302.08306200000516,,302.0553421000077,10,302.08306200000516,302.08306200000516,0.019271500001195818,304.7025013000093,[0.37777777777777777],[0.36666666666666664],[1],[0],[0],[2.6282984999998007],['target'],4,001,2024-10-10_12h42.25.347,Visual search task,2024.1.5,None,2024-10-10 12h42.34.588081 +0530,
150,0,150,0,304.7343677000026,,304.7049737000052,10,304.7343677000026,304.7343677000026,0.02004829999350477,306.1862919000123,[0.026851851851851852],[-0.18611111111111112],[1],[0],[0],[1.4613921999989543],['target'],4,001,2024-10-10_12h42.25.347,Visual search task,2024.1.5,None,2024-10-10 12h42.34.588081 +0530,
151,0,151,0,306.2036158000119,,306.1884441000002,5,306.2036158000119,306.2036158000119,0.009496200000285171,307.95184110000264,[-0.08055555555555556],[0.17407407407407408],[1],[0],[0],[1.753970699995989],['target'],4,001,2024-10-10_12h42.25.347,Visual search task,2024.1.5,None,2024-10-10 12h42.34.588081 +0530,
152,0,152,0,307.9691859000013,,307.9539943000127,5,307.9691859000013,307.9691859000013,0.009435699990717694,309.4515480000118,[-0.3509259259259259],[-0.29259259259259257],[1],[0],[0],[1.4881829000078142],['target'],4,001,2024-10-10_12h42.25.347,Visual search task,2024.1.5,None,2024-10-10 12h42.34.588081 +0530,
153,0,153,0,309.4808069999999,,309.4536905999994,10,309.4808069999999,309.4808069999999,0.01831030000175815,311.3856323000073,[-0.262037037037037],[0.07962962962962963],[1],[0],[0],[1.9128908999991836],['target'],4,001,2024-10-10_12h42.25.347,Visual search task,2024.1.5,None,2024-10-10 12h42.34.588081 +0530,
154,0,154,0,311.4163593000121,,311.3877816000022,10,311.4163593000121,311.4163593000121,0.019618199992692098,313.43541840001126,[-0.2824074074074074],[-0.23796296296296296],[1],[0],[0],[2.027323400005116],['target'],4,001,2024-10-10_12h42.25.347,Visual search task,2024.1.5,None,2024-10-10 12h42.34.588081 +0530,
155,0,155,0,313.46598050001194,,313.43761140000424,10,313.46598050001194,313.46598050001194,0.019928499998059124,315.06853930000216,[0.31574074074074077],[0.32037037037037036],[1],[0],[0],[1.6103794999944512],['target'],4,001,2024-10-10_12h42.25.347,Visual search task,2024.1.5,None,2024-10-10 12h42.34.588081 +0530,
156,0,156,0,315.0984110999998,,315.0706741000031,10,315.0984110999998,315.0984110999998,0.019265499999164604,317.8350597000099,[0.4074074074074074],[-0.45092592592592595],[1],[0],[0],[2.7442561000061687],['target'],4,001,2024-10-10_12h42.25.347,Visual search task,2024.1.5,None,2024-10-10 12h42.34.588081 +0530,
157,0,157,0,317.8644568000018,,317.837237300002,10,317.8644568000018,317.8644568000018,0.01946999999927357,320.45121490000747,[-0.17962962962962964],[-0.4759259259259259],[1],[0],[0],[2.593781499992474],['target'],4,001,2024-10-10_12h42.25.347,Visual search task,2024.1.5,None,2024-10-10 12h42.34.588081 +0530,
158,0,158,0,320.48020360000373,,320.45337909999944,10,320.48020360000373,320.48020360000373,0.01974040000641253,322.15117720000853,[-0.09259259259259259],[-0.07685185185185185],[1],[0],[0],[1.6774564999941504],['target'],4,001,2024-10-10_12h42.25.347,Visual search task,2024.1.5,None,2024-10-10 12h42.34.588081 +0530,
159,0,159,0,322.1690319000045,,322.15333430000464,5,322.1690319000045,322.1690319000045,0.009577300006640144,324.1174083000078,[0.0712962962962963],[0.42962962962962964],[1],[0],[0],[1.9541630000021541],['target'],4,001,2024-10-10_12h42.25.347,Visual search task,2024.1.5,None,2024-10-10 12h42.34.588081 +0530,
160,0,160,0,324.1351192000002,,324.1195327000023,5,324.1351192000002,324.1351192000002,0.009387199999764562,326.3336430000054,[-0.1925925925925926],[0.475],[1],[0],[0],[2.2040204999939306],['target'],4,001,2024-10-10_12h42.25.347,Visual search task,2024.1.5,None,2024-10-10 12h42.34.588081 +0530,
161,0,161,0,326.3508772000059,,326.33591010000964,5,326.3508772000059,326.3508772000059,0.00942810000560712,328.1499549,[-0.027777777777777776],[0.20092592592592592],[1],[0],[0],[1.8040619999956107],['target'],4,001,2024-10-10_12h42.25.347,Visual search task,2024.1.5,None,2024-10-10 12h42.34.588081 +0530,
162,0,162,0,328.1801664000086,,328.1522335000045,10,328.1801664000086,328.1801664000086,0.019684999992023222,330.9161241000111,[0.17037037037037037],[0.06666666666666667],[1],[0],[0],[2.743491500004893],['target'],4,001,2024-10-10_12h42.25.347,Visual search task,2024.1.5,None,2024-10-10 12h42.34.588081 +0530,
163,0,163,0,330.9351467000088,,330.918482699999,5,330.9351467000088,330.9351467000088,0.00997040000220295,332.433508800008,[0.20555555555555555],[-0.06666666666666667],[1],[0],[0],[1.504200800001854],['target'],4,001,2024-10-10_12h42.25.347,Visual search task,2024.1.5,None,2024-10-10 12h42.34.588081 +0530,
164,0,164,0,332.4695711000095,,332.4357474999997,10,332.4695711000095,332.4695711000095,0.02389240000047721,335.19926350000605,[0.4083333333333333],[0.25925925925925924],[1],[0],[0],[2.7388076999923214],['target'],4,001,2024-10-10_12h42.25.347,Visual search task,2024.1.5,None,2024-10-10 12h42.34.588081 +0530,
165,0,165,0,335.22025360001135,,335.20165620000625,5,335.22025360001135,335.22025360001135,0.011966999998549,336.4148117000004,[0.29907407407407405],[0.18796296296296297],[1],[0],[0],[1.2012763999955496],['target'],4,001,2024-10-10_12h42.25.347,Visual search task,2024.1.5,None,2024-10-10 12h42.34.588081 +0530,
166,0,166,0,336.44320150000567,,336.4169722000079,10,336.44320150000567,336.44320150000567,0.019190199993317947,338.399015300005,[-0.08611111111111111],[-0.3537037037037037],[1],[0],[0],[1.962040700003854],['target'],4,001,2024-10-10_12h42.25.347,Visual search task,2024.1.5,None,2024-10-10 12h42.34.588081 +0530,
167,0,167,0,338.42938430000504,,338.40123550000135,10,338.42938430000504,338.42938430000504,0.019581800006562844,339.98199739999836,[0.3648148148148148],[-0.4074074074074074],[1],[0],[0],[1.560776900005294],['target'],4,001,2024-10-10_12h42.25.347,Visual search task,2024.1.5,None,2024-10-10 12h42.34.588081 +0530,
168,0,168,0,340.0002198000002,,339.98416120000184,5,340.0002198000002,340.0002198000002,0.00945270000374876,341.6486748000025,[-0.010185185185185186],[0.08518518518518518],[1],[0],[0],[1.6547403000004124],['target'],4,001,2024-10-10_12h42.25.347,Visual search task,2024.1.5,None,2024-10-10 12h42.34.588081 +0530,
169,0,169,0,341.67828530000406,,341.6508540000068,10,341.67828530000406,341.67828530000406,0.019443000011960976,343.1647851000016,[-0.1925925925925926],[-0.2064814814814815],[1],[0],[0],[1.4938526999903843],['target'],4,001,2024-10-10_12h42.25.347,Visual search task,2024.1.5,None,2024-10-10 12h42.34.588081 +0530,
170,0,170,0,343.18201730000146,,343.16698220001126,5,343.18201730000146,343.18201730000146,0.009675900000729598,345.13146800000686,[-0.3175925925925926],[-0.06388888888888888],[1],[0],[0],[1.9541295999952126],['target'],4,001,2024-10-10_12h42.25.347,Visual search task,2024.1.5,None,2024-10-10 12h42.34.588081 +0530,
171,0,171,0,345.1488185000053,,345.13363010001194,5,345.1488185000053,345.1488185000053,0.009383600001456216,346.69764170001145,[0.03981481481481482],[-0.3138888888888889],[1],[0],[0],[1.5540716999967117],['target'],4,001,2024-10-10_12h42.25.347,Visual search task,2024.1.5,None,2024-10-10 12h42.34.588081 +0530,
172,0,172,0,346.7289152000012,,346.6999857000046,10,346.7289152000012,346.7289152000012,0.019666899999720044,348.1642453000095,[0.42777777777777776],[-0.1638888888888889],[1],[0],[0],[1.443876999997883],['target'],4,001,2024-10-10_12h42.25.347,Visual search task,2024.1.5,None,2024-10-10 12h42.34.588081 +0530,
173,0,173,0,348.18162940000184,,348.16653660000884,5,348.18162940000184,348.18162940000184,0.009512900011031888,350.280828700008,[-0.3611111111111111],[0.2916666666666667],[1],[0],[0],[2.104031999988365],['target'],4,001,2024-10-10_12h42.25.347,Visual search task,2024.1.5,None,2024-10-10 12h42.34.588081 +0530,
174,0,174,0,350.29800930000783,,350.28297870000824,5,350.29800930000783,350.29800930000783,0.009374300003401004,351.94673780001176,[-0.15462962962962962],[0.45740740740740743],[1],[0],[0],[1.65387809999811],['target'],4,001,2024-10-10_12h42.25.347,Visual search task,2024.1.5,None,2024-10-10 12h42.34.588081 +0530,
175,0,175,0,351.96582340000896,,351.9491152000119,5,351.96582340000896,351.96582340000896,0.010119300000951625,353.3804283000063,[0.1787037037037037],[0.3861111111111111],[1],[0],[0],[1.4203722999955062],['target'],4,001,2024-10-10_12h42.25.347,Visual search task,2024.1.5,None,2024-10-10 12h42.34.588081 +0530,
176,0,176,0,353.3978858000046,,353.38257640000666,5,353.3978858000046,353.3978858000046,0.009612099995138124,355.2470728000044,[-0.15833333333333333],[-0.40185185185185185],[1],[0],[0],[1.853942299989285],['target'],4,001,2024-10-10_12h42.25.347,Visual search task,2024.1.5,None,2024-10-10 12h42.34.588081 +0530,
177,0,177,0,355.2767110999994,,355.2491965000081,10,355.2767110999994,355.2767110999994,0.01959710000664927,356.6297220999986,[-0.26481481481481484],[0.04537037037037037],[1],[0],[0],[1.3602988999919035],['target'],4,001,2024-10-10_12h42.25.347,Visual search task,2024.1.5,None,2024-10-10 12h42.34.588081 +0530,
178,0,178,0,356.6607814000017,,356.63191120000556,10,356.6607814000017,356.6607814000017,0.019473099993774667,360.1130344000121,[-0.2777777777777778],[0.47129629629629627],[1],[0],[0],[3.4616338000050746],['target'],4,001,2024-10-10_12h42.25.347,Visual search task,2024.1.5,None,2024-10-10 12h42.34.588081 +0530,
179,0,179,0,360.14326580001216,,360.11518560000695,10,360.14326580001216,360.14326580001216,0.01973549999820534,361.92835690001084,[-0.4740740740740741],[-0.13518518518518519],[1],[0],[0],[1.7935305000137305],['target'],4,001,2024-10-10_12h42.25.347,Visual search task,2024.1.5,None,2024-10-10 12h42.34.588081 +0530,
180,0,180,0,361.94588170001225,,361.9305066000088,5,361.94588170001225,361.94588170001225,0.009686599994893186,363.3615969000093,[-0.09166666666666666],[0.21481481481481482],[1],[0],[0],[1.4213660000095842],['target'],4,001,2024-10-10_12h42.25.347,Visual search task,2024.1.5,None,2024-10-10 12h42.34.588081 +0530,
181,0,181,0,363.39149230001203,,363.3637557000038,10,363.39149230001203,363.39149230001203,0.018947600008687004,365.3621501000016,[0.4537037037037037],[-0.31296296296296294],[1],[0],[0],[1.979191799997352],['target'],4,001,2024-10-10_12h42.25.347,Visual search task,2024.1.5,None,2024-10-10 12h42.34.588081 +0530,
182,0,182,0,365.3931169999996,,365.364287400007,10,365.3931169999996,365.3931169999996,0.021585599999525584,367.3119857999991,[-0.19722222222222222],[0.39537037037037037],[1],[0],[0],[1.9257799000042723],['target'],4,001,2024-10-10_12h42.25.347,Visual search task,2024.1.5,None,2024-10-10 12h42.34.588081 +0530,
183,0,183,0,367.3423635000072,,367.3141404000053,10,367.3423635000072,367.3423635000072,0.019854700003634207,368.994938600008,[-0.46296296296296297],[0.40185185185185185],[1],[0],[0],[1.6602713000029325],['target'],4,001,2024-10-10_12h42.25.347,Visual search task,2024.1.5,None,2024-10-10 12h42.34.588081 +0530,
184,0,184,0,369.02591160000884,,368.99721300000965,10,369.02591160000884,369.02591160000884,0.019909399998141453,370.9439037999982,[0.32592592592592595],[-0.14629629629629629],[1],[0],[0],[1.9268493999989005],['target'],4,001,2024-10-10_12h42.25.347,Visual search task,2024.1.5,None,2024-10-10 12h42.34.588081 +0530,
185,0,185,0,370.9612297999993,,370.94606660000863,5,370.9612297999993,370.9612297999993,0.009691899991594255,372.51039150000724,[-0.175],[0.19722222222222222],[1],[0],[0],[1.554721199994674],['target'],4,001,2024-10-10_12h42.25.347,Visual search task,2024.1.5,None,2024-10-10 12h42.34.588081 +0530,
186,0,186,0,372.53916060000483,,372.51255030000175,10,372.53916060000483,372.53916060000483,0.018380499997874722,374.59438580001006,[0.2777777777777778],[-0.019444444444444445],[1],[0],[0],[2.063323800000944],['target'],4,001,2024-10-10_12h42.25.347,Visual search task,2024.1.5,None,2024-10-10 12h42.34.588081 +0530,
187,0,187,0,374.6113683000003,,374.5965514999989,5,374.6113683000003,374.6113683000003,0.009798899991437793,376.9429861000099,[-0.3611111111111111],[0.2796296296296296],[1],[0],[0],[2.3367209999996703],['target'],4,001,2024-10-10_12h42.25.347,Visual search task,2024.1.5,None,2024-10-10 12h42.34.588081 +0530,
188,0,188,0,376.97123010001087,,376.94514350000827,10,376.97123010001087,376.97123010001087,0.018306300000404008,378.5766036999994,[-0.19074074074074074],[-0.10833333333333334],[1],[0],[0],[1.613194099991233],['target'],4,001,2024-10-10_12h42.25.347,Visual search task,2024.1.5,None,2024-10-10 12h42.34.588081 +0530,
189,0,189,0,378.59405820000393,,378.57874260000244,5,378.59405820000393,378.59405820000393,0.00949199999740813,379.5770729000069,[-0.07962962962962963],[-0.06388888888888888],[1],[0],[0],[0.9885757000010926],['target'],4,001,2024-10-10_12h42.25.347,Visual search task,2024.1.5,None,2024-10-10 12h42.34.588081 +0530,
190,0,190,0,379.6071954000072,,379.57915190000494,10,379.6071954000072,379.6071954000072,0.01953999999386724,381.52607950000674,[0.22870370370370371],[-0.337037037037037],[1],[0],[0],[1.9275283999886597],['target'],4,001,2024-10-10_12h42.25.347,Visual search task,2024.1.5,None,2024-10-10 12h42.34.588081 +0530,
191,0,191,0,381.54340320000483,,381.5282425000041,5,381.54340320000483,381.54340320000483,0.009328000000095926,383.6598035000061,[-0.4222222222222222],[0.2953703703703704],[1],[0],[0],[2.1222543999901973],['target'],4,001,2024-10-10_12h42.25.347,Visual search task,2024.1.5,None,2024-10-10 12h42.34.588081 +0530,
192,0,192,0,383.6777598000044,,383.66191380000964,5,383.6777598000044,383.6777598000044,0.009488499999861233,385.0926371000096,[0.06666666666666667],[0.40185185185185185],[1],[0],[0],[1.4208129000035115],['target'],4,001,2024-10-10_12h42.25.347,Visual search task,2024.1.5,None,2024-10-10 12h42.34.588081 +0530,
193,0,193,0,385.123018600003,,385.09495670000615,10,385.123018600003,385.123018600003,0.01957250000850763,386.9593687000015,[-0.06018518518518518],[-0.4564814814814815],[1],[0],[0],[1.844118500011973],['target'],4,001,2024-10-10_12h42.25.347,Visual search task,2024.1.5,None,2024-10-10 12h42.34.588081 +0530,
194,0,194,0,386.9891665000032,,386.9615315000119,10,386.9891665000032,386.9891665000032,0.019488800011458807,388.8915657000034,[0.34814814814814815],[-0.337037037037037],[1],[0],[0],[1.910631699996884],['target'],4,001,2024-10-10_12h42.25.347,Visual search task,2024.1.5,None,2024-10-10 12h42.34.588081 +0530,
195,0,195,0,388.90835009999864,,388.89369440000155,5,388.90835009999864,388.90835009999864,0.009591599999112077,390.55815430000075,[0.4],[0.20277777777777778],[1],[0],[0],[1.654893400002038],['target'],4,001,2024-10-10_12h42.25.347,Visual search task,2024.1.5,None,2024-10-10 12h42.34.588081 +0530,
196,0,196,0,390.5749605000019,,390.56029449999915,5,390.5749605000019,390.5749605000019,0.00931779999518767,391.94124260000535,[0.32407407407407407],[0.42777777777777776],[1],[0],[0],[1.371726099998341],['target'],4,001,2024-10-10_12h42.25.347,Visual search task,2024.1.5,None,2024-10-10 12h42.34.588081 +0530,
197,0,197,0,391.9698190000054,,391.9434032999998,10,391.9698190000054,391.9698190000054,0.018580000003566965,393.9250461000047,[-0.22685185185185186],[0.36018518518518516],[1],[0],[0],[1.962348999993992],['target'],4,001,2024-10-10_12h42.25.347,Visual search task,2024.1.5,None,2024-10-10 12h42.34.588081 +0530,
198,0,198,0,393.95497530000284,,393.92725600000995,10,393.95497530000284,393.95497530000284,0.02008479999494739,395.97502520000853,[-0.10925925925925926],[-0.24259259259259258],[1],[0],[0],[2.026939500006847],['target'],4,001,2024-10-10_12h42.25.347,Visual search task,2024.1.5,None,2024-10-10 12h42.34.588081 +0530,
199,0,199,0,395.9922599999991,,395.9772129000048,5,395.9922599999991,395.9922599999991,0.0097265999938827,397.42476290000195,[-0.3537037037037037],[0.16296296296296298],[1],[0],[0],[1.4370759000012185],['target'],4,001,2024-10-10_12h42.25.347,Visual search task,2024.1.5,None,2024-10-10 12h42.34.588081 +0530,
